,ax,ay,az,gx,gy,gz,mx,my,mz,elapsed,timestamp
0,-213.0,-368.0,245.0,17.0,32.0,-27.0,0.0,0.0,0.0,0.015,1681843398.93
1,-214.0,-370.0,246.0,8.0,6.0,-16.0,0.0,0.0,0.0,0.015,1681843399.01
2,-213.0,-370.0,240.0,18.0,12.0,-26.0,0.0,0.0,0.0,0.016,1681843399.09
3,-212.0,-368.0,246.0,12.0,7.0,-30.0,0.0,0.0,0.0,0.016,1681843399.17
4,-208.0,-367.0,245.0,26.0,54.0,-20.0,0.0,0.0,0.0,0.016,1681843399.25
5,-216.0,-370.0,243.0,11.0,49.0,-24.0,0.0,0.0,0.0,0.015,1681843399.32
6,-216.0,-373.0,238.0,-11.0,-38.0,-38.0,0.0,0.0,0.0,0.015,1681843399.41
7,-218.0,-374.0,247.0,0.0,-13.0,-62.0,0.0,0.0,0.0,0.015,1681843399.49
8,,,,,,,,,,,
9,,,,,,,,,,,
10,1500.0,1500.0,1500.0,885.0,1500.0,1500.0,1500.0,1500.0,1500.0,0.015,1681843399.66
11,-210.0,-371.0,248.0,-4.0,33.0,-10.0,0.0,0.0,0.0,0.015,1681843399.74
12,-202.0,-371.0,236.0,17.0,5.0,13.0,0.0,0.0,0.0,0.015,1681843399.82
13,-210.0,-368.0,239.0,28.0,10.0,23.0,0.0,0.0,0.0,0.015,1681843399.90
14,-214.0,-373.0,232.0,42.0,6.0,-29.0,0.0,0.0,0.0,0.015,1681843399.98
15,-211.0,-374.0,229.0,-19.0,-43.0,-44.0,0.0,0.0,0.0,0.015,1681843400.06
16,-211.0,-372.0,247.0,-17.0,-25.0,-65.0,0.0,0.0,0.0,0.016,1681843400.14
17,-218.0,-372.0,247.0,97.0,239.0,52.0,0.0,0.0,0.0,0.016,1681843400.22
18,-191.0,-342.0,231.0,98.0,-257.0,5.0,0.0,0.0,0.0,0.016,1681843400.30
19,-240.0,-372.0,295.0,-300.0,-1222.0,-763.0,0.0,0.0,0.0,0.015,1681843400.38
20,-364.0,-318.0,187.0,-57.0,-466.0,-249.0,0.0,0.0,0.0,0.015,1681843400.46
21,-153.0,-400.0,284.0,270.0,374.0,38.0,0.0,0.0,0.0,0.015,1681843400.54
22,-212.0,-351.0,239.0,306.0,174.0,-74.0,0.0,0.0,0.0,0.015,1681843400.62
23,-227.0,-315.0,261.0,-84.0,218.0,26.0,0.0,0.0,0.0,0.015,1681843400.70
24,-244.0,-366.0,249.0,-67.0,-16.0,227.0,0.0,0.0,0.0,0.015,1681843400.78
25,-146.0,-398.0,237.0,-218.0,-22.0,126.0,0.0,0.0,0.0,0.015,1681843400.86
26,-243.0,-409.0,216.0,49.0,349.0,-150.0,0.0,0.0,0.0,0.015,1681843400.94
27,,,,,,,,,,,
28,,,,,,,,,,,
29,,,,,,,,,,,
30,-222.0,-377.0,261.0,-513.0,-477.0,-239.0,0.0,0.0,0.0,0.015,1681843401.13
31,,,,,,,,,,,
32,-127.0,-428.0,315.0,-397.0,-545.0,-165.0,0.0,0.0,0.0,0.015,1681843401.29
33,-167.0,-452.0,311.0,-703.0,-868.0,-585.0,0.0,0.0,0.0,0.015,1681843401.37
34,-153.0,-411.0,362.0,-402.0,-1498.0,3.0,0.0,0.0,0.0,0.016,1681843401.45
35,-142.0,-365.0,322.0,-1527.0,-1899.0,-384.0,0.0,0.0,0.0,0.016,1681843401.53
36,-116.0,-362.0,162.0,-433.0,-1645.0,503.0,0.0,0.0,0.0,0.015,1681843401.61
37,-143.0,-498.0,124.0,-445.0,-1077.0,709.0,0.0,0.0,0.0,0.015,1681843401.69
38,-87.0,-525.0,82.0,-571.0,-1223.0,13.0,0.0,0.0,0.0,0.015,1681843401.77
39,-54.0,-644.0,45.0,-239.0,-412.0,-255.0,0.0,0.0,0.0,0.015,1681843401.85
40,-59.0,-444.0,52.0,-1034.0,-52.0,224.0,0.0,0.0,0.0,0.015,1681843401.93
41,-76.0,-537.0,38.0,-520.0,-6.0,-147.0,0.0,0.0,0.0,0.016,1681843402.01
42,-45.0,-457.0,14.0,-798.0,182.0,94.0,0.0,0.0,0.0,0.016,1681843402.09
43,-24.0,-454.0,2.0,-770.0,-3.0,-223.0,0.0,0.0,0.0,0.015,1681843402.17
44,-32.0,-499.0,-9.0,-728.0,375.0,81.0,0.0,0.0,0.0,0.015,1681843402.25
45,-24.0,-497.0,-46.0,-739.0,357.0,-123.0,0.0,0.0,0.0,0.015,1681843402.33
46,-48.0,-464.0,-82.0,-261.0,203.0,-365.0,0.0,0.0,0.0,0.016,1681843402.41
47,18.0,-540.0,-125.0,-557.0,332.0,-201.0,0.0,0.0,0.0,0.016,1681843402.49
48,-20.0,-472.0,-117.0,-185.0,47.0,-559.0,0.0,0.0,0.0,0.016,1681843402.57
49,20.0,-432.0,-139.0,-76.0,-17.0,-501.0,0.0,0.0,0.0,0.016,1681843402.65
50,17.0,-481.0,-128.0,-64.0,92.0,-432.0,0.0,0.0,0.0,0.016,1681843402.73
51,54.0,-485.0,-126.0,-182.0,133.0,-73.0,0.0,0.0,0.0,0.015,1681843402.81
52,49.0,-480.0,-130.0,748.0,-169.0,-568.0,0.0,0.0,0.0,0.015,1681843402.89
53,51.0,-512.0,-115.0,189.0,-178.0,-165.0,0.0,0.0,0.0,0.015,1681843402.97
54,116.0,-490.0,-87.0,270.0,-350.0,-284.0,0.0,0.0,0.0,0.016,1681843403.05
55,66.0,-523.0,-71.0,-383.0,-81.0,-302.0,0.0,0.0,0.0,0.015,1681843403.13
56,97.0,-464.0,-135.0,-83.0,-140.0,-190.0,0.0,0.0,0.0,0.015,1681843403.21
57,166.0,-147.0,-183.0,267.0,-1085.0,635.0,0.0,0.0,0.0,0.015,1681843403.29
58,96.0,-413.0,-84.0,858.0,525.0,849.0,0.0,0.0,0.0,0.016,1681843403.37
59,29.0,-461.0,70.0,900.0,8.0,177.0,0.0,0.0,0.0,0.016,1681843403.45
60,44.0,-506.0,125.0,460.0,-366.0,18.0,0.0,0.0,0.0,0.015,1681843403.53
61,60.0,-497.0,101.0,-35.0,-412.0,394.0,0.0,0.0,0.0,0.015,1681843403.61
62,14.0,-482.0,-13.0,11.0,-299.0,696.0,0.0,0.0,0.0,0.015,1681843403.69
63,62.0,-526.0,58.0,574.0,-628.0,-229.0,0.0,0.0,0.0,0.016,1681843403.77
64,-7.0,-559.0,92.0,-48.0,-498.0,-8.0,0.0,0.0,0.0,0.015,1681843403.85
65,34.0,-488.0,25.0,-252.0,-473.0,39.0,0.0,0.0,0.0,0.015,1681843403.93
66,1500.0,1500.0,1500.0,885.0,1500.0,1500.0,1500.0,1500.0,1500.0,0.015,1681843404.00
67,45.0,-486.0,3.0,50.0,-300.0,154.0,0.0,0.0,0.0,0.015,1681843404.08
68,42.0,-513.0,59.0,-214.0,-164.0,445.0,0.0,0.0,0.0,0.015,1681843404.16
69,21.0,-505.0,69.0,-423.0,-191.0,527.0,0.0,0.0,0.0,0.016,1681843404.24
70,-31.0,-478.0,65.0,-569.0,-774.0,507.0,0.0,0.0,0.0,0.016,1681843404.32
71,-58.0,-516.0,18.0,-328.0,-484.0,620.0,0.0,0.0,0.0,0.015,1681843404.40
72,-152.0,-529.0,-13.0,-149.0,-697.0,-253.0,0.0,0.0,0.0,0.015,1681843404.48
73,-39.0,-502.0,-50.0,106.0,-664.0,-27.0,0.0,0.0,0.0,0.015,1681843404.56
74,-67.0,-405.0,-109.0,-630.0,-47.0,540.0,0.0,0.0,0.0,0.016,1681843404.64
75,-82.0,-501.0,-83.0,-694.0,-192.0,351.0,0.0,0.0,0.0,0.015,1681843404.72
76,-134.0,-447.0,-192.0,22.0,-390.0,224.0,0.0,0.0,0.0,0.015,1681843404.80
77,-142.0,-553.0,-92.0,147.0,122.0,-66.0,0.0,0.0,0.0,0.016,1681843404.88
78,-68.0,-486.0,-57.0,134.0,-115.0,-88.0,0.0,0.0,0.0,0.016,1681843404.96
79,-60.0,-420.0,-43.0,-23.0,-159.0,269.0,0.0,0.0,0.0,0.016,1681843405.04
80,-81.0,-379.0,-49.0,371.0,-200.0,395.0,0.0,0.0,0.0,0.016,1681843405.12
81,-84.0,-439.0,4.0,506.0,-329.0,468.0,0.0,0.0,0.0,0.015,1681843405.20
82,-92.0,-432.0,6.0,506.0,-622.0,605.0,0.0,0.0,0.0,0.015,1681843405.28
83,-140.0,-445.0,30.0,617.0,-861.0,725.0,0.0,0.0,0.0,0.015,1681843405.36
84,-207.0,-414.0,41.0,886.0,-913.0,442.0,0.0,0.0,0.0,0.016,1681843405.44
85,,,,,,,,,,,
86,-252.0,-377.0,96.0,628.0,-438.0,539.0,0.0,0.0,0.0,0.015,1681843405.57
87,-238.0,-379.0,156.0,594.0,-277.0,782.0,0.0,0.0,0.0,0.016,1681843405.65
88,-238.0,-387.0,228.0,580.0,-380.0,503.0,0.0,0.0,0.0,0.015,1681843405.72
89,-300.0,-328.0,218.0,352.0,-241.0,837.0,0.0,0.0,0.0,0.015,1681843405.81
90,-290.0,-321.0,254.0,347.0,-827.0,662.0,0.0,0.0,0.0,0.016,1681843405.89
91,-330.0,-239.0,270.0,653.0,-675.0,241.0,0.0,0.0,0.0,0.016,1681843405.97
92,-343.0,-259.0,303.0,632.0,-634.0,433.0,0.0,0.0,0.0,0.016,1681843406.05
93,-308.0,-260.0,333.0,273.0,-43.0,626.0,0.0,0.0,0.0,0.015,1681843406.13
94,-293.0,-224.0,323.0,255.0,-244.0,716.0,0.0,0.0,0.0,0.015,1681843406.20
95,-236.0,-219.0,344.0,752.0,-535.0,152.0,0.0,0.0,0.0,0.015,1681843406.29
96,-285.0,-171.0,409.0,472.0,-442.0,188.0,0.0,0.0,0.0,0.015,1681843406.37
97,-336.0,-169.0,367.0,89.0,-319.0,536.0,0.0,0.0,0.0,0.015,1681843406.45
98,-293.0,-181.0,485.0,250.0,-293.0,143.0,0.0,0.0,0.0,0.016,1681843406.53
99,-271.0,-102.0,466.0,322.0,-173.0,416.0,0.0,0.0,0.0,0.016,1681843406.61
100,-240.0,-182.0,512.0,89.0,-339.0,358.0,0.0,0.0,0.0,0.015,1681843406.68
101,-324.0,-113.0,423.0,76.0,-111.0,103.0,0.0,0.0,0.0,0.015,1681843406.77
102,-231.0,-86.0,433.0,117.0,-282.0,-81.0,0.0,0.0,0.0,0.016,1681843406.85
103,-287.0,-110.0,443.0,31.0,-251.0,-57.0,0.0,0.0,0.0,0.016,1681843406.93
104,-276.0,-101.0,450.0,73.0,73.0,-249.0,0.0,0.0,0.0,0.015,1681843407.00
105,-242.0,-62.0,414.0,23.0,212.0,-146.0,0.0,0.0,0.0,0.015,1681843407.09
106,-329.0,42.0,311.0,241.0,24.0,315.0,0.0,0.0,0.0,0.015,1681843407.17
107,-278.0,-77.0,441.0,304.0,210.0,8.0,0.0,0.0,0.0,0.016,1681843407.25
108,-202.0,-34.0,455.0,352.0,318.0,-260.0,0.0,0.0,0.0,0.016,1681843407.33
109,-180.0,-65.0,445.0,174.0,277.0,-410.0,0.0,0.0,0.0,0.015,1681843407.40
110,-146.0,-36.0,425.0,363.0,-118.0,-756.0,0.0,0.0,0.0,0.015,1681843407.49
111,-236.0,-67.0,442.0,242.0,153.0,-261.0,0.0,0.0,0.0,0.015,1681843407.57
112,-316.0,-67.0,409.0,-95.0,600.0,232.0,0.0,0.0,0.0,0.015,1681843407.65
113,-286.0,27.0,405.0,260.0,157.0,-798.0,0.0,0.0,0.0,0.015,1681843407.73
114,-237.0,35.0,410.0,277.0,374.0,-236.0,0.0,0.0,0.0,0.015,1681843407.81
115,-163.0,-2.0,501.0,466.0,38.0,-1044.0,0.0,0.0,0.0,0.016,1681843407.89
116,-123.0,40.0,511.0,566.0,-261.0,-949.0,0.0,0.0,0.0,0.016,1681843407.97
117,-192.0,-47.0,526.0,72.0,-204.0,-417.0,0.0,0.0,0.0,0.016,1681843408.05
118,-200.0,-119.0,557.0,-1175.0,-1231.0,881.0,0.0,0.0,0.0,0.015,1681843408.13
119,-277.0,-130.0,550.0,-177.0,-909.0,771.0,0.0,0.0,0.0,0.015,1681843408.21
120,-276.0,-52.0,500.0,-159.0,-188.0,368.0,0.0,0.0,0.0,0.015,1681843408.29
121,-57.0,85.0,528.0,814.0,-309.0,1581.0,0.0,0.0,0.0,0.016,1681843408.37
122,-55.0,-20.0,490.0,-109.0,36.0,521.0,0.0,0.0,0.0,0.016,1681843408.45
123,,,,,,,,,,,
124,,,,,,,,,,,
125,,,,,,,,,,,
126,1500.0,1500.0,1500.0,885.0,1500.0,1500.0,1500.0,1500.0,1500.0,0.015,1681843408.57
127,,,,,,,,,,,
128,-104.0,-33.0,464.0,-719.0,-811.0,-348.0,0.0,0.0,0.0,0.015,1681843408.73
129,,,,,,,,,,,
130,-59.0,-94.0,386.0,-469.0,89.0,-166.0,0.0,0.0,0.0,0.015,1681843408.89
131,-49.0,-156.0,381.0,-70.0,255.0,504.0,0.0,0.0,0.0,0.016,1681843408.97
132,-82.0,-177.0,419.0,-40.0,729.0,749.0,0.0,0.0,0.0,0.016,1681843409.05
133,-96.0,-154.0,415.0,-172.0,-19.0,260.0,0.0,0.0,0.0,0.015,1681843409.13
134,-111.0,-135.0,395.0,15.0,-195.0,253.0,0.0,0.0,0.0,0.016,1681843409.21
135,-121.0,-155.0,415.0,-15.0,-95.0,-9.0,0.0,0.0,0.0,0.016,1681843409.29
136,-155.0,-161.0,413.0,99.0,403.0,131.0,0.0,0.0,0.0,0.015,1681843409.37
137,-188.0,-172.0,397.0,145.0,-776.0,291.0,0.0,0.0,0.0,0.015,1681843409.45
138,-184.0,-134.0,464.0,249.0,-87.0,302.0,0.0,0.0,0.0,0.015,1681843409.53
139,-169.0,-94.0,427.0,427.0,192.0,-32.0,0.0,0.0,0.0,0.015,1681843409.61
140,-156.0,-104.0,445.0,563.0,294.0,146.0,0.0,0.0,0.0,0.016,1681843409.69
141,-164.0,-115.0,461.0,639.0,426.0,-72.0,0.0,0.0,0.0,0.016,1681843409.77
142,,,,,,,,,,,
143,-186.0,-72.0,456.0,422.0,575.0,-287.0,0.0,0.0,0.0,0.0,1681843409.86
144,,,,,,,,,,,
145,-112.0,-21.0,388.0,-114.0,-311.0,-866.0,0.0,0.0,0.0,0.015,1681843410.01
146,-137.0,-80.0,486.0,253.0,-218.0,-597.0,0.0,0.0,0.0,0.015,1681843410.09
147,-137.0,-50.0,467.0,222.0,-148.0,-545.0,0.0,0.0,0.0,0.015,1681843410.17
148,-104.0,-68.0,486.0,200.0,-141.0,-577.0,0.0,0.0,0.0,0.015,1681843410.25
149,-103.0,-70.0,491.0,0.0,-216.0,-606.0,0.0,0.0,0.0,0.015,1681843410.33
150,-98.0,-75.0,498.0,94.0,154.0,-404.0,0.0,0.0,0.0,0.016,1681843410.41
151,-81.0,-99.0,485.0,-82.0,289.0,-438.0,0.0,0.0,0.0,0.015,1681843410.49
152,-104.0,-104.0,483.0,131.0,265.0,-162.0,0.0,0.0,0.0,0.015,1681843410.57
153,-119.0,-88.0,459.0,-10.0,-42.0,-127.0,0.0,0.0,0.0,0.016,1681843410.65
154,-114.0,-42.0,460.0,76.0,-4.0,-82.0,0.0,0.0,0.0,0.015,1681843410.73
155,-97.0,-57.0,479.0,47.0,-51.0,-96.0,0.0,0.0,0.0,0.016,1681843410.81
156,-120.0,-88.0,485.0,82.0,-65.0,34.0,0.0,0.0,0.0,0.016,1681843410.89
157,-150.0,-68.0,500.0,-65.0,102.0,25.0,0.0,0.0,0.0,0.015,1681843410.97
158,-134.0,-39.0,484.0,-87.0,118.0,-144.0,0.0,0.0,0.0,0.015,1681843411.05
159,-100.0,-101.0,475.0,-69.0,122.0,30.0,0.0,0.0,0.0,0.015,1681843411.13
160,-91.0,-97.0,482.0,-134.0,-38.0,103.0,0.0,0.0,0.0,0.015,1681843411.21
161,,,,,,,,,,,
162,,,,,,,,,,,
163,1500.0,1500.0,1500.0,885.0,1500.0,1500.0,1500.0,1500.0,1500.0,0.015,1681843411.34
164,,,,,,,,,,,
165,-73.0,-76.0,496.0,-254.0,20.0,348.0,0.0,0.0,0.0,0.015,1681843411.50
166,-25.0,-85.0,396.0,-246.0,305.0,436.0,0.0,0.0,0.0,0.016,1681843411.58
167,-87.0,-131.0,446.0,-109.0,-478.0,1098.0,0.0,0.0,0.0,0.016,1681843411.66
168,-122.0,-99.0,466.0,-394.0,-959.0,469.0,0.0,0.0,0.0,0.016,1681843411.74
169,-9.0,-155.0,353.0,-104.0,-1454.0,199.0,0.0,0.0,0.0,0.016,1681843411.82
170,-215.0,-70.0,550.0,358.0,-750.0,1293.0,0.0,0.0,0.0,0.016,1681843411.90
171,-141.0,-98.0,569.0,21.0,-387.0,316.0,0.0,0.0,0.0,0.016,1681843411.98
172,-79.0,-106.0,498.0,33.0,-31.0,247.0,0.0,0.0,0.0,0.016,1681843412.06
173,-32.0,-110.0,478.0,32.0,241.0,308.0,0.0,0.0,0.0,0.016,1681843412.14
174,-24.0,-117.0,488.0,7.0,322.0,177.0,0.0,0.0,0.0,0.016,1681843412.22
175,0.0,-159.0,411.0,94.0,282.0,196.0,0.0,0.0,0.0,0.016,1681843412.30
176,-112.0,-95.0,504.0,-123.0,135.0,-347.0,0.0,0.0,0.0,0.016,1681843412.38
177,-107.0,-93.0,560.0,-747.0,514.0,-218.0,0.0,0.0,0.0,0.016,1681843412.46
178,-61.0,-212.0,596.0,-1043.0,701.0,86.0,0.0,0.0,0.0,0.016,1681843412.54
179,-125.0,-167.0,512.0,-511.0,9.0,350.0,0.0,0.0,0.0,0.016,1681843412.62
180,,,,,,,,,,,
181,-45.0,-292.0,413.0,-62.0,-46.0,-363.0,0.0,0.0,0.0,0.016,1681843412.78
182,-138.0,-206.0,344.0,221.0,457.0,-358.0,0.0,0.0,0.0,0.016,1681843412.86
183,-136.0,-239.0,431.0,426.0,515.0,-209.0,0.0,0.0,0.0,0.016,1681843412.94
184,-62.0,-258.0,382.0,189.0,-177.0,-321.0,0.0,0.0,0.0,0.016,1681843413.02
185,-150.0,-212.0,485.0,261.0,96.0,-149.0,0.0,0.0,0.0,0.016,1681843413.10
186,-52.0,-230.0,414.0,147.0,130.0,-296.0,0.0,0.0,0.0,0.016,1681843413.18
187,-71.0,-202.0,397.0,-487.0,-94.0,-572.0,0.0,0.0,0.0,0.016,1681843413.26
188,-104.0,-203.0,436.0,323.0,61.0,20.0,0.0,0.0,0.0,0.016,1681843413.34
189,-73.0,-229.0,418.0,-13.0,255.0,-12.0,0.0,0.0,0.0,0.016,1681843413.42
190,-103.0,-230.0,429.0,-38.0,300.0,37.0,0.0,0.0,0.0,0.016,1681843413.50
191,-130.0,-214.0,391.0,-103.0,266.0,-63.0,0.0,0.0,0.0,0.016,1681843413.58
192,-162.0,-221.0,420.0,52.0,340.0,-80.0,0.0,0.0,0.0,0.016,1681843413.66
193,-162.0,-199.0,383.0,-316.0,893.0,-163.0,0.0,0.0,0.0,0.016,1681843413.74
194,-106.0,-218.0,306.0,-1635.0,464.0,-757.0,0.0,0.0,0.0,0.016,1681843413.82
195,-78.0,-272.0,321.0,1.0,179.0,-110.0,0.0,0.0,0.0,0.016,1681843413.90
196,-107.0,-271.0,326.0,541.0,-211.0,104.0,0.0,0.0,0.0,0.016,1681843413.98
197,-138.0,-262.0,363.0,453.0,-285.0,24.0,0.0,0.0,0.0,0.016,1681843414.06
198,-96.0,-275.0,385.0,441.0,-291.0,40.0,0.0,0.0,0.0,0.016,1681843414.14
199,-95.0,-244.0,396.0,439.0,-318.0,107.0,0.0,0.0,0.0,0.016,1681843414.22
200,1500.0,1500.0,1500.0,885.0,1500.0,1500.0,1500.0,1500.0,1500.0,0.015,1681843414.29
201,-97.0,-216.0,396.0,436.0,-199.0,229.0,0.0,0.0,0.0,0.016,1681843414.37
202,-124.0,-190.0,423.0,404.0,-304.0,183.0,0.0,0.0,0.0,0.016,1681843414.45
203,-99.0,-189.0,427.0,365.0,-177.0,251.0,0.0,0.0,0.0,0.015,1681843414.53
204,-116.0,-177.0,428.0,258.0,-172.0,152.0,0.0,0.0,0.0,0.016,1681843414.61
205,-83.0,-177.0,432.0,53.0,-52.0,-83.0,0.0,0.0,0.0,0.016,1681843414.69
206,-75.0,-157.0,404.0,-23.0,-60.0,-217.0,0.0,0.0,0.0,0.016,1681843414.77
207,-85.0,-157.0,384.0,-69.0,-34.0,-375.0,0.0,0.0,0.0,0.016,1681843414.85
208,-56.0,-162.0,401.0,-22.0,183.0,-157.0,0.0,0.0,0.0,0.016,1681843414.93
209,-65.0,-217.0,479.0,-331.0,216.0,-102.0,0.0,0.0,0.0,0.016,1681843415.01
210,-88.0,-206.0,473.0,-390.0,437.0,57.0,0.0,0.0,0.0,0.016,1681843415.09
211,-93.0,-215.0,418.0,-370.0,123.0,91.0,0.0,0.0,0.0,0.016,1681843415.17
212,-102.0,-203.0,467.0,80.0,528.0,-97.0,0.0,0.0,0.0,0.016,1681843415.25
213,-153.0,-240.0,434.0,533.0,130.0,98.0,0.0,0.0,0.0,0.016,1681843415.33
214,-154.0,-261.0,507.0,1002.0,694.0,64.0,0.0,0.0,0.0,0.016,1681843415.41
215,-98.0,-175.0,544.0,563.0,-938.0,255.0,0.0,0.0,0.0,0.016,1681843415.49
216,-194.0,-227.0,473.0,510.0,-115.0,413.0,0.0,0.0,0.0,0.016,1681843415.57
217,-81.0,-127.0,424.0,-309.0,-92.0,-235.0,0.0,0.0,0.0,0.016,1681843415.65
218,-134.0,-188.0,433.0,426.0,-72.0,198.0,0.0,0.0,0.0,0.016,1681843415.73
219,,,,,,,,,,,
220,,,,,,,,,,,
221,-186.0,-146.0,490.0,134.0,-179.0,-391.0,0.0,0.0,0.0,0.015,1681843415.90
222,-153.0,-173.0,491.0,197.0,127.0,-940.0,0.0,0.0,0.0,0.016,1681843415.98
223,-85.0,-177.0,448.0,-134.0,228.0,-790.0,0.0,0.0,0.0,0.016,1681843416.06
224,-90.0,-149.0,428.0,-237.0,181.0,-899.0,0.0,0.0,0.0,0.016,1681843416.14
225,-52.0,-140.0,394.0,-462.0,655.0,-1222.0,0.0,0.0,0.0,0.016,1681843416.22
226,-28.0,-160.0,384.0,33.0,-143.0,-1048.0,0.0,0.0,0.0,0.016,1681843416.30
227,-4.0,-209.0,411.0,-174.0,1029.0,-645.0,0.0,0.0,0.0,0.016,1681843416.38
228,-58.0,-127.0,488.0,296.0,-923.0,-1604.0,0.0,0.0,0.0,0.016,1681843416.46
229,97.0,-92.0,276.0,-484.0,-755.0,-2053.0,0.0,0.0,0.0,0.016,1681843416.54
230,210.0,-140.0,461.0,304.0,-3090.0,-1707.0,0.0,0.0,0.0,0.016,1681843416.62
231,187.0,-266.0,274.0,378.0,-1962.0,-474.0,0.0,0.0,0.0,0.016,1681843416.70
232,428.0,-93.0,382.0,93.0,-3370.0,-1248.0,0.0,0.0,0.0,0.016,1681843416.78
233,388.0,-85.0,371.0,11.0,-2038.0,-602.0,0.0,0.0,0.0,0.016,1681843416.86
234,395.0,-134.0,115.0,2068.0,-424.0,-416.0,0.0,0.0,0.0,0.016,1681843416.94
235,350.0,-330.0,-155.0,4542.0,1499.0,617.0,0.0,0.0,0.0,0.016,1681843417.02
236,328.0,36.0,405.0,734.0,873.0,75.0,0.0,0.0,0.0,0.016,1681843417.10
237,169.0,73.0,373.0,-44.0,1482.0,468.0,0.0,0.0,0.0,0.016,1681843417.18
238,1500.0,1500.0,1500.0,885.0,1500.0,1500.0,1500.0,1500.0,1500.0,0.0,1681843417.25
239,104.0,-43.0,481.0,-329.0,495.0,166.0,0.0,0.0,0.0,0.016,1681843417.33
240,122.0,-46.0,477.0,-257.0,315.0,-50.0,0.0,0.0,0.0,0.016,1681843417.41
241,101.0,-63.0,475.0,-279.0,333.0,-293.0,0.0,0.0,0.0,0.016,1681843417.49
242,94.0,-26.0,480.0,355.0,761.0,49.0,0.0,0.0,0.0,0.016,1681843417.57
243,73.0,-31.0,488.0,262.0,345.0,-281.0,0.0,0.0,0.0,0.016,1681843417.65
244,5.0,-15.0,491.0,-199.0,-27.0,-276.0,0.0,0.0,0.0,0.016,1681843417.73
245,22.0,-67.0,488.0,-57.0,-9.0,-28.0,0.0,0.0,0.0,0.016,1681843417.81
246,30.0,-66.0,491.0,280.0,-441.0,305.0,0.0,0.0,0.0,0.016,1681843417.89
247,65.0,-70.0,484.0,143.0,-64.0,194.0,0.0,0.0,0.0,0.016,1681843417.97
248,54.0,-52.0,497.0,414.0,107.0,112.0,0.0,0.0,0.0,0.016,1681843418.05
249,43.0,-37.0,483.0,30.0,396.0,-28.0,0.0,0.0,0.0,0.016,1681843418.13
250,43.0,-34.0,483.0,83.0,243.0,-110.0,0.0,0.0,0.0,0.016,1681843418.21
251,16.0,-36.0,489.0,555.0,393.0,482.0,0.0,0.0,0.0,0.016,1681843418.29
252,35.0,-35.0,484.0,285.0,342.0,297.0,0.0,0.0,0.0,0.016,1681843418.37
253,18.0,-31.0,489.0,-34.0,174.0,119.0,0.0,0.0,0.0,0.016,1681843418.45
254,-9.0,-17.0,495.0,203.0,299.0,195.0,0.0,0.0,0.0,0.016,1681843418.53
255,-19.0,-16.0,501.0,-25.0,-4.0,-17.0,0.0,0.0,0.0,0.016,1681843418.61
256,-15.0,-13.0,492.0,-15.0,-51.0,-51.0,0.0,0.0,0.0,0.015,1681843418.69
257,,,,,,,,,,,
258,,,,,,,,,,,
259,,,,,,,,,,,
260,,,,,,,,,,,
261,-13.0,-12.0,491.0,4.0,19.0,-34.0,0.0,0.0,0.0,0.015,1681843418.88
262,,,,,,,,,,,
263,,,,,,,,,,,
264,1500.0,1500.0,1500.0,885.0,1500.0,1500.0,1500.0,1500.0,1500.0,0.015,1681843419.12
265,-16.0,-11.0,494.0,15.0,29.0,-21.0,0.0,0.0,0.0,0.016,1681843419.20
266,-16.0,-11.0,494.0,4.0,7.0,-35.0,0.0,0.0,0.0,0.016,1681843419.28
267,-15.0,-13.0,493.0,9.0,16.0,-28.0,0.0,0.0,0.0,0.016,1681843419.36
268,-15.0,-11.0,492.0,8.0,18.0,-29.0,0.0,0.0,0.0,0.016,1681843419.44
269,-15.0,-11.0,494.0,9.0,16.0,-27.0,0.0,0.0,0.0,0.016,1681843419.52
270,-16.0,-11.0,494.0,10.0,23.0,-24.0,0.0,0.0,0.0,0.016,1681843419.60
271,-17.0,-11.0,494.0,6.0,14.0,-26.0,0.0,0.0,0.0,0.016,1681843419.68
272,-17.0,-10.0,492.0,15.0,33.0,-28.0,0.0,0.0,0.0,0.016,1681843419.76
273,-17.0,-10.0,494.0,9.0,13.0,-26.0,0.0,0.0,0.0,0.016,1681843419.84
274,-17.0,-11.0,495.0,9.0,15.0,-28.0,0.0,0.0,0.0,0.016,1681843419.92
275,-17.0,-10.0,492.0,11.0,20.0,-26.0,0.0,0.0,0.0,0.016,1681843420.00
276,,,,,,,,,,,
277,,,,,,,,,,,
278,,,,,,,,,,,
279,1500.0,1500.0,1500.0,885.0,1500.0,1500.0,1500.0,1500.0,1500.0,0.015,1681843420.22
280,-18.0,-9.0,493.0,9.0,20.0,-27.0,0.0,0.0,0.0,0.016,1681843420.30
281,-17.0,-11.0,493.0,4.0,10.0,-26.0,0.0,0.0,0.0,0.016,1681843420.38
282,-17.0,-12.0,493.0,12.0,22.0,-26.0,0.0,0.0,0.0,0.016,1681843420.46
283,-18.0,-10.0,492.0,15.0,22.0,-34.0,0.0,0.0,0.0,0.016,1681843420.54
284,-16.0,-11.0,495.0,9.0,74.0,-28.0,0.0,0.0,0.0,0.016,1681843420.62
285,-21.0,-11.0,492.0,15.0,17.0,-27.0,0.0,0.0,0.0,0.016,1681843420.70
286,-13.0,-12.0,493.0,14.0,41.0,-19.0,0.0,0.0,0.0,0.016,1681843420.78
287,-19.0,-9.0,494.0,12.0,46.0,-22.0,0.0,0.0,0.0,0.016,1681843420.86
288,-6.0,-11.0,503.0,80.0,686.0,382.0,0.0,0.0,0.0,0.016,1681843420.94
289,-48.0,-15.0,469.0,182.0,121.0,151.0,0.0,0.0,0.0,0.016,1681843421.02
290,-34.0,-11.0,492.0,-3.0,10.0,-105.0,0.0,0.0,0.0,0.016,1681843421.10
291,-24.0,-9.0,491.0,-6.0,-44.0,-72.0,0.0,0.0,0.0,0.016,1681843421.18
292,-27.0,-11.0,492.0,8.0,26.0,-11.0,0.0,0.0,0.0,0.016,1681843421.26
293,-25.0,-11.0,494.0,-130.0,-162.0,-185.0,0.0,0.0,0.0,0.016,1681843421.34
294,-73.0,16.0,456.0,-109.0,-385.0,-420.0,0.0,0.0,0.0,0.016,1681843421.42
295,,,,,,,,,,,
296,,,,,,,,,,,
297,,,,,,,,,,,
298,-62.0,12.0,486.0,690.0,4209.0,-551.0,0.0,0.0,0.0,0.015,1681843421.61
299,,,,,,,,,,,
300,-103.0,1.0,486.0,-68.0,-208.0,-117.0,0.0,0.0,0.0,0.016,1681843421.77
301,-16.0,-35.0,508.0,-21.0,-897.0,-725.0,0.0,0.0,0.0,0.016,1681843421.85
302,-54.0,-16.0,516.0,-395.0,-175.0,-1235.0,0.0,0.0,0.0,0.016,1681843421.93
303,32.0,-42.0,511.0,-542.0,650.0,-3017.0,0.0,0.0,0.0,0.016,1681843422.01
304,12.0,36.0,483.0,59.0,515.0,-3380.0,0.0,0.0,0.0,0.016,1681843422.09
305,8.0,-89.0,519.0,71.0,-532.0,-1720.0,0.0,0.0,0.0,0.016,1681843422.17
306,-17.0,-83.0,494.0,102.0,277.0,-2379.0,0.0,0.0,0.0,0.016,1681843422.25
307,-10.0,-38.0,471.0,300.0,209.0,-3480.0,0.0,0.0,0.0,0.016,1681843422.33
308,38.0,-39.0,498.0,286.0,9.0,-3037.0,0.0,0.0,0.0,0.016,1681843422.41
309,32.0,-40.0,487.0,-217.0,311.0,-2623.0,0.0,0.0,0.0,0.016,1681843422.49
310,37.0,-73.0,484.0,-859.0,425.0,-2774.0,0.0,0.0,0.0,0.016,1681843422.57
311,23.0,-69.0,490.0,-565.0,116.0,-2277.0,0.0,0.0,0.0,0.016,1681843422.65
312,22.0,-49.0,489.0,564.0,813.0,-428.0,0.0,0.0,0.0,0.016,1681843422.73
313,7.0,-64.0,489.0,142.0,394.0,-154.0,0.0,0.0,0.0,0.016,1681843422.81
314,,,,,,,,,,,
315,14.0,-49.0,491.0,-71.0,139.0,761.0,0.0,0.0,0.0,0.016,1681843422.97
316,-2.0,-105.0,485.0,22.0,-598.0,1658.0,0.0,0.0,0.0,0.016,1681843423.05
317,13.0,-83.0,505.0,280.0,-773.0,2884.0,0.0,0.0,0.0,0.016,1681843423.13
318,-10.0,-6.0,499.0,928.0,-871.0,2863.0,0.0,0.0,0.0,0.016,1681843423.21
319,55.0,61.0,461.0,104.0,-224.0,2954.0,0.0,0.0,0.0,0.016,1681843423.29
320,35.0,-3.0,491.0,126.0,68.0,2576.0,0.0,0.0,0.0,0.016,1681843423.37
321,31.0,-5.0,493.0,284.0,-158.0,3549.0,0.0,0.0,0.0,0.016,1681843423.45
322,5.0,-97.0,559.0,-926.0,1116.0,3449.0,0.0,0.0,0.0,0.016,1681843423.53
323,-43.0,-14.0,443.0,-469.0,-385.0,882.0,0.0,0.0,0.0,0.016,1681843423.61
324,-38.0,-43.0,467.0,-299.0,-452.0,1216.0,0.0,0.0,0.0,0.016,1681843423.69
325,-38.0,-85.0,486.0,-20.0,-49.0,-306.0,0.0,0.0,0.0,0.016,1681843423.77
326,-2.0,-102.0,495.0,-52.0,128.0,-156.0,0.0,0.0,0.0,0.016,1681843423.85
327,-6.0,-56.0,496.0,184.0,-86.0,-400.0,0.0,0.0,0.0,0.016,1681843423.93
328,6.0,-91.0,521.0,-44.0,-80.0,-290.0,0.0,0.0,0.0,0.016,1681843424.01
329,-9.0,-71.0,495.0,913.0,-570.0,-391.0,0.0,0.0,0.0,0.016,1681843424.09
330,0.0,6.0,488.0,1497.0,-296.0,-627.0,0.0,0.0,0.0,0.016,1681843424.17
331,8.0,73.0,479.0,1829.0,141.0,-620.0,0.0,0.0,0.0,0.016,1681843424.25
332,39.0,144.0,491.0,1681.0,-205.0,-527.0,0.0,0.0,0.0,0.016,1681843424.33
333,88.0,219.0,444.0,1446.0,-818.0,218.0,0.0,0.0,0.0,0.016,1681843424.41
334,1500.0,1500.0,1500.0,885.0,1500.0,1500.0,1500.0,1500.0,1500.0,0.015,1681843424.48
335,142.0,305.0,352.0,1745.0,693.0,157.0,0.0,0.0,0.0,0.016,1681843424.56
336,72.0,392.0,329.0,1810.0,-88.0,-405.0,0.0,0.0,0.0,0.016,1681843424.64
337,95.0,424.0,322.0,1381.0,1171.0,266.0,0.0,0.0,0.0,0.016,1681843424.72
338,69.0,459.0,283.0,1277.0,659.0,-546.0,0.0,0.0,0.0,0.016,1681843424.80
339,38.0,481.0,166.0,-109.0,-295.0,-484.0,0.0,0.0,0.0,0.016,1681843424.88
340,26.0,473.0,193.0,-181.0,404.0,56.0,0.0,0.0,0.0,0.016,1681843424.96
341,16.0,476.0,188.0,-653.0,-156.0,-57.0,0.0,0.0,0.0,0.016,1681843425.04
342,9.0,451.0,252.0,-1419.0,309.0,88.0,0.0,0.0,0.0,0.016,1681843425.12
343,-19.0,400.0,326.0,-3939.0,1689.0,27.0,0.0,0.0,0.0,0.016,1681843425.20
344,-52.0,243.0,445.0,-5910.0,3215.0,-1472.0,0.0,0.0,0.0,0.016,1681843425.28
345,-205.0,-49.0,397.0,-3382.0,2162.0,-955.0,0.0,0.0,0.0,0.016,1681843425.36
346,-237.0,-83.0,395.0,-35.0,-684.0,-284.0,0.0,0.0,0.0,0.016,1681843425.44
347,-212.0,-133.0,430.0,-459.0,-840.0,114.0,0.0,0.0,0.0,0.016,1681843425.52
348,-128.0,-151.0,497.0,-1112.0,-363.0,-114.0,0.0,0.0,0.0,0.016,1681843425.60
349,-125.0,-148.0,425.0,-1470.0,-120.0,176.0,0.0,0.0,0.0,0.016,1681843425.68
350,-145.0,-262.0,404.0,-1758.0,-101.0,-300.0,0.0,0.0,0.0,0.016,1681843425.76
351,-159.0,-324.0,316.0,-2099.0,-98.0,-175.0,0.0,0.0,0.0,0.015,1681843425.84
352,-138.0,-385.0,253.0,-1626.0,13.0,-543.0,0.0,0.0,0.0,0.016,1681843425.92
353,,,,,,,,,,,
354,,,,,,,,,,,
355,-59.0,-456.0,177.0,-147.0,-5.0,-10.0,0.0,0.0,0.0,0.015,1681843426.09
356,-91.0,-448.0,193.0,169.0,-63.0,99.0,0.0,0.0,0.0,0.016,1681843426.17
357,-85.0,-434.0,193.0,86.0,-25.0,-113.0,0.0,0.0,0.0,0.015,1681843426.25
358,-75.0,-398.0,206.0,561.0,-443.0,-372.0,0.0,0.0,0.0,0.016,1681843426.33
359,-41.0,-417.0,225.0,698.0,-174.0,-72.0,0.0,0.0,0.0,0.016,1681843426.41
360,-41.0,-407.0,262.0,1250.0,-429.0,-91.0,0.0,0.0,0.0,0.016,1681843426.49
361,-47.0,-372.0,294.0,1475.0,-142.0,-123.0,0.0,0.0,0.0,0.016,1681843426.57
362,-28.0,-320.0,357.0,1152.0,266.0,-178.0,0.0,0.0,0.0,0.015,1681843426.65
363,-25.0,-268.0,425.0,417.0,1.0,62.0,0.0,0.0,0.0,0.016,1681843426.73
364,5.0,-264.0,426.0,924.0,-298.0,-315.0,0.0,0.0,0.0,0.015,1681843426.81
365,11.0,-253.0,436.0,476.0,-58.0,-163.0,0.0,0.0,0.0,0.015,1681843426.89
366,-19.0,-104.0,430.0,3092.0,-240.0,-1330.0,0.0,0.0,0.0,0.015,1681843426.97
367,28.0,-12.0,453.0,1993.0,1128.0,-1548.0,0.0,0.0,0.0,0.015,1681843427.05
368,28.0,22.0,501.0,1245.0,-452.0,-780.0,0.0,0.0,0.0,0.015,1681843427.13
369,14.0,32.0,513.0,291.0,-142.0,-243.0,0.0,0.0,0.0,0.016,1681843427.21
370,23.0,38.0,505.0,47.0,-125.0,-1.0,0.0,0.0,0.0,0.015,1681843427.29
371,33.0,39.0,503.0,-68.0,-62.0,123.0,0.0,0.0,0.0,0.015,1681843427.37
372,,,,,,,,,,,
373,,,,,,,,,,,
374,51.0,43.0,500.0,-685.0,-211.0,802.0,0.0,0.0,0.0,0.015,1681843427.55
375,62.0,21.0,502.0,-752.0,328.0,734.0,0.0,0.0,0.0,0.015,1681843427.63
376,55.0,-22.0,498.0,-60.0,-255.0,536.0,0.0,0.0,0.0,0.015,1681843427.71
377,62.0,13.0,497.0,-398.0,59.0,1500.0,0.0,0.0,0.0,0.015,1681843427.79
378,75.0,-28.0,479.0,667.0,-478.0,2067.0,0.0,0.0,0.0,0.015,1681843427.87
379,32.0,-20.0,474.0,44.0,801.0,2203.0,0.0,0.0,0.0,0.015,1681843427.95
380,57.0,-66.0,527.0,-45.0,464.0,1336.0,0.0,0.0,0.0,0.015,1681843428.03
381,-1.0,-25.0,470.0,-440.0,918.0,1597.0,0.0,0.0,0.0,0.015,1681843428.11
382,-8.0,-1.0,477.0,-72.0,-35.0,1759.0,0.0,0.0,0.0,0.016,1681843428.19
383,-80.0,-72.0,532.0,96.0,532.0,1412.0,0.0,0.0,0.0,0.015,1681843428.27
384,-96.0,-1.0,515.0,-295.0,182.0,1742.0,0.0,0.0,0.0,0.015,1681843428.35
385,-52.0,-20.0,496.0,-776.0,-115.0,1986.0,0.0,0.0,0.0,0.015,1681843428.43
386,-138.0,-56.0,506.0,264.0,400.0,2324.0,0.0,0.0,0.0,0.015,1681843428.51
387,-110.0,-92.0,494.0,-735.0,135.0,2459.0,0.0,0.0,0.0,0.015,1681843428.59
388,-113.0,3.0,419.0,-631.0,-2215.0,2350.0,0.0,0.0,0.0,0.016,1681843428.67
389,-91.0,-110.0,512.0,-1313.0,-1658.0,-110.0,0.0,0.0,0.0,0.015,1681843428.75
390,3.0,-72.0,439.0,-347.0,-1480.0,662.0,0.0,0.0,0.0,0.015,1681843428.83
391,,,,,,,,,,,
392,,,,,,,,,,,
393,,,,,,,,,,,
394,,,,,,,,,,,
395,,,,,,,,,,,
396,1500.0,1500.0,1500.0,885.0,1500.0,1500.0,1500.0,1500.0,1500.0,0.016,1681843429.10
397,,,,,,,,,,,
398,301.0,-240.0,302.0,161.0,339.0,361.0,0.0,0.0,0.0,0.015,1681843429.26
399,242.0,-166.0,417.0,759.0,419.0,-136.0,0.0,0.0,0.0,0.015,1681843429.34
400,239.0,13.0,371.0,4153.0,3925.0,780.0,0.0,0.0,0.0,0.016,1681843429.42
401,153.0,-76.0,412.0,-335.0,579.0,210.0,0.0,0.0,0.0,0.015,1681843429.50
402,120.0,-60.0,462.0,973.0,-497.0,679.0,0.0,0.0,0.0,0.015,1681843429.58
403,95.0,-9.0,546.0,-10.0,240.0,839.0,0.0,0.0,0.0,0.015,1681843429.66
404,107.0,53.0,496.0,-2144.0,-1062.0,487.0,0.0,0.0,0.0,0.015,1681843429.74
405,104.0,26.0,513.0,652.0,373.0,316.0,0.0,0.0,0.0,0.015,1681843429.82
406,101.0,-35.0,464.0,-663.0,132.0,249.0,0.0,0.0,0.0,0.015,1681843429.90
407,86.0,-24.0,493.0,-30.0,32.0,37.0,0.0,0.0,0.0,0.015,1681843429.98
408,100.0,-11.0,432.0,-479.0,503.0,352.0,0.0,0.0,0.0,0.015,1681843430.06
409,67.0,-40.0,498.0,8.0,153.0,65.0,0.0,0.0,0.0,0.015,1681843430.14
410,,,,,,,,,,,
411,,,,,,,,,,,
412,1500.0,1500.0,1500.0,885.0,1500.0,1500.0,1500.0,1500.0,1500.0,0.015,1681843430.27
413,,,,,,,,,,,
414,68.0,-35.0,486.0,185.0,22.0,-33.0,0.0,0.0,0.0,0.014,1681843430.43
415,75.0,-64.0,468.0,160.0,202.0,22.0,0.0,0.0,0.0,0.015,1681843430.51
416,67.0,-34.0,475.0,42.0,152.0,-115.0,0.0,0.0,0.0,0.015,1681843430.59
417,42.0,-37.0,504.0,18.0,85.0,-77.0,0.0,0.0,0.0,0.015,1681843430.67
418,39.0,-29.0,513.0,120.0,197.0,-39.0,0.0,0.0,0.0,0.015,1681843430.75
419,27.0,-27.0,533.0,276.0,377.0,34.0,0.0,0.0,0.0,0.015,1681843430.83
420,19.0,12.0,589.0,287.0,-38.0,-135.0,0.0,0.0,0.0,0.015,1681843430.91
421,64.0,16.0,533.0,237.0,149.0,-519.0,0.0,0.0,0.0,0.015,1681843430.99
422,11.0,-16.0,515.0,353.0,1352.0,-110.0,0.0,0.0,0.0,0.015,1681843431.07
423,4.0,7.0,529.0,687.0,-83.0,52.0,0.0,0.0,0.0,0.015,1681843431.15
424,37.0,5.0,514.0,-24.0,1305.0,-154.0,0.0,0.0,0.0,0.015,1681843431.23
425,-145.0,74.0,636.0,-2732.0,-392.0,1977.0,0.0,0.0,0.0,0.015,1681843431.31
426,-200.0,-181.0,359.0,-1089.0,179.0,1250.0,0.0,0.0,0.0,0.015,1681843431.39
427,-63.0,5.0,285.0,7003.0,-1268.0,-1269.0,0.0,0.0,0.0,0.015,1681843431.47
428,-175.0,-329.0,86.0,-237.0,-257.0,-26.0,0.0,0.0,0.0,0.015,1681843431.55
429,,,,,,,,,,,
430,,,,,,,,,,,
431,-110.0,-104.0,465.0,911.0,83.0,209.0,0.0,0.0,0.0,0.015,1681843431.69
432,,,,,,,,,,,
433,-174.0,6.0,429.0,1460.0,647.0,401.0,0.0,0.0,0.0,0.015,1681843431.85
434,-223.0,50.0,402.0,-252.0,283.0,259.0,0.0,0.0,0.0,0.015,1681843431.93
435,-135.0,-23.0,469.0,298.0,-532.0,-392.0,0.0,0.0,0.0,0.015,1681843432.01
436,-146.0,32.0,485.0,-13.0,230.0,73.0,0.0,0.0,0.0,0.015,1681843432.09
437,-214.0,23.0,449.0,189.0,-385.0,-147.0,0.0,0.0,0.0,0.015,1681843432.17
438,-217.0,58.0,456.0,245.0,-63.0,109.0,0.0,0.0,0.0,0.015,1681843432.25
439,-131.0,116.0,485.0,324.0,108.0,-239.0,0.0,0.0,0.0,0.015,1681843432.33
440,-274.0,-27.0,377.0,-325.0,164.0,464.0,0.0,0.0,0.0,0.015,1681843432.41
441,-246.0,39.0,495.0,-811.0,-917.0,-192.0,0.0,0.0,0.0,0.015,1681843432.49
442,-195.0,100.0,506.0,19.0,512.0,-463.0,0.0,0.0,0.0,0.016,1681843432.57
443,-361.0,52.0,608.0,-3741.0,6774.0,-5042.0,0.0,0.0,0.0,0.015,1681843432.65
444,-39.0,308.0,139.0,-1524.0,3932.0,-12774.0,0.0,0.0,0.0,0.015,1681843432.73
445,75.0,-15.0,-120.0,-5168.0,634.0,-17.0,0.0,0.0,0.0,0.016,1681843432.81
446,211.0,-278.0,247.0,1119.0,31824.0,175.0,0.0,0.0,0.0,0.015,1681843432.89
447,-87.0,335.0,69.0,-18041.0,11288.0,-12253.0,0.0,0.0,0.0,0.015,1681843432.97
448,,,,,,,,,,,
449,576.0,-141.0,-306.0,1187.0,-4282.0,-1809.0,0.0,0.0,0.0,0.015,1681843433.13
450,149.0,-64.0,-700.0,6938.0,-1155.0,1486.0,0.0,0.0,0.0,0.015,1681843433.21
451,236.0,-281.0,-695.0,-2117.0,-1329.0,636.0,0.0,0.0,0.0,0.015,1681843433.29
452,102.0,-286.0,-598.0,1993.0,-683.0,-668.0,0.0,0.0,0.0,0.015,1681843433.37
453,32.0,-312.0,-555.0,472.0,-411.0,-295.0,0.0,0.0,0.0,0.015,1681843433.45
454,238.0,-279.0,-367.0,772.0,-874.0,-87.0,0.0,0.0,0.0,0.016,1681843433.53
455,127.0,-223.0,-318.0,2063.0,-1001.0,1228.0,0.0,0.0,0.0,0.015,1681843433.61
456,-117.0,-346.0,-255.0,-46.0,-475.0,-463.0,0.0,0.0,0.0,0.015,1681843433.69
457,-38.0,-355.0,-213.0,-41.0,-246.0,-864.0,0.0,0.0,0.0,0.016,1681843433.77
458,12.0,-340.0,-344.0,194.0,-490.0,-289.0,0.0,0.0,0.0,0.016,1681843433.85
459,61.0,-339.0,-335.0,-545.0,-395.0,-17.0,0.0,0.0,0.0,0.015,1681843433.93
460,-9.0,-317.0,-278.0,188.0,-666.0,634.0,0.0,0.0,0.0,0.015,1681843434.01
461,-9.0,-344.0,-328.0,-486.0,-304.0,-232.0,0.0,0.0,0.0,0.015,1681843434.09
462,-22.0,-316.0,-385.0,-956.0,-978.0,95.0,0.0,0.0,0.0,0.015,1681843434.17
463,3.0,-291.0,-411.0,-541.0,-938.0,-494.0,0.0,0.0,0.0,0.015,1681843434.25
464,-46.0,-244.0,-469.0,-2060.0,-180.0,6.0,0.0,0.0,0.0,0.015,1681843434.33
465,-66.0,-197.0,-463.0,632.0,-894.0,315.0,0.0,0.0,0.0,0.015,1681843434.41
466,-121.0,-194.0,-480.0,-804.0,-211.0,410.0,0.0,0.0,0.0,0.015,1681843434.49
467,-113.0,-196.0,-544.0,-459.0,2763.0,2282.0,0.0,0.0,0.0,0.015,1681843434.57
468,-101.0,-126.0,-617.0,-521.0,4715.0,-1177.0,0.0,0.0,0.0,0.015,1681843434.64
469,119.0,-98.0,-542.0,-750.0,-706.0,6.0,0.0,0.0,0.0,0.015,1681843434.72
470,90.0,-72.0,-550.0,-726.0,-426.0,8.0,0.0,0.0,0.0,0.015,1681843434.80
471,68.0,-16.0,-488.0,-1113.0,-422.0,-137.0,0.0,0.0,0.0,0.016,1681843434.88
472,54.0,16.0,-539.0,-682.0,97.0,-253.0,0.0,0.0,0.0,0.016,1681843434.96
473,36.0,69.0,-542.0,-780.0,-155.0,110.0,0.0,0.0,0.0,0.016,1681843435.04
474,37.0,110.0,-547.0,-504.0,-116.0,339.0,0.0,0.0,0.0,0.016,1681843435.12
475,11.0,72.0,-577.0,-546.0,-151.0,231.0,0.0,0.0,0.0,0.016,1681843435.20
476,-23.0,103.0,-528.0,-415.0,-187.0,-423.0,0.0,0.0,0.0,0.016,1681843435.28
477,34.0,168.0,-531.0,-351.0,-210.0,60.0,0.0,0.0,0.0,0.016,1681843435.36
478,30.0,218.0,-542.0,-651.0,-469.0,-85.0,0.0,0.0,0.0,0.016,1681843435.44
479,-5.0,196.0,-561.0,-645.0,-374.0,151.0,0.0,0.0,0.0,0.016,1681843435.52
480,-23.0,195.0,-542.0,-466.0,-244.0,-42.0,0.0,0.0,0.0,0.016,1681843435.60
481,-59.0,201.0,-541.0,-133.0,-282.0,-40.0,0.0,0.0,0.0,0.016,1681843435.68
482,-58.0,262.0,-485.0,-61.0,-346.0,50.0,0.0,0.0,0.0,0.016,1681843435.76
483,-126.0,243.0,-492.0,-190.0,-330.0,-162.0,0.0,0.0,0.0,0.016,1681843435.84
484,-145.0,211.0,-538.0,-442.0,-1161.0,284.0,0.0,0.0,0.0,0.016,1681843435.92
485,-100.0,242.0,-564.0,102.0,-246.0,126.0,0.0,0.0,0.0,0.016,1681843436.00
486,-145.0,254.0,-488.0,540.0,214.0,95.0,0.0,0.0,0.0,0.016,1681843436.08
487,,,,,,,,,,,
488,,,,,,,,,,,
489,-124.0,180.0,-557.0,407.0,113.0,-43.0,0.0,0.0,0.0,0.016,1681843436.25
490,-48.0,176.0,-508.0,937.0,341.0,67.0,0.0,0.0,0.0,0.016,1681843436.33
491,-100.0,124.0,-525.0,858.0,336.0,-167.0,0.0,0.0,0.0,0.016,1681843436.41
492,-77.0,85.0,-556.0,653.0,376.0,-225.0,0.0,0.0,0.0,0.016,1681843436.49
493,-46.0,70.0,-521.0,637.0,393.0,-77.0,0.0,0.0,0.0,0.016,1681843436.57
494,-55.0,30.0,-547.0,700.0,433.0,53.0,0.0,0.0,0.0,0.016,1681843436.65
495,23.0,-54.0,-542.0,977.0,-100.0,-109.0,0.0,0.0,0.0,0.016,1681843436.73
496,-117.0,-65.0,-558.0,452.0,562.0,201.0,0.0,0.0,0.0,0.016,1681843436.81
497,-12.0,-74.0,-556.0,684.0,451.0,663.0,0.0,0.0,0.0,0.016,1681843436.89
498,21.0,-147.0,-519.0,2073.0,2914.0,397.0,0.0,0.0,0.0,0.016,1681843436.97
499,-44.0,-428.0,-154.0,444.0,3091.0,-2480.0,0.0,0.0,0.0,0.016,1681843437.05
500,266.0,-86.0,-394.0,1126.0,2579.0,-2005.0,0.0,0.0,0.0,0.016,1681843437.13
501,428.0,-183.0,-329.0,-1173.0,824.0,641.0,0.0,0.0,0.0,0.016,1681843437.21
502,320.0,-200.0,-363.0,53.0,1715.0,1879.0,0.0,0.0,0.0,0.016,1681843437.29
503,358.0,-169.0,10.0,888.0,11898.0,-1232.0,0.0,0.0,0.0,0.016,1681843437.37
504,452.0,-246.0,106.0,924.0,874.0,231.0,0.0,0.0,0.0,0.016,1681843437.45
505,481.0,-268.0,98.0,1200.0,2614.0,1203.0,0.0,0.0,0.0,0.016,1681843437.53
506,,,,,,,,,,,
507,,,,,,,,,,,
508,449.0,-220.0,328.0,857.0,4280.0,338.0,0.0,0.0,0.0,0.016,1681843437.71
509,152.0,-202.0,432.0,2710.0,5005.0,-477.0,0.0,0.0,0.0,0.016,1681843437.79
510,-19.0,-112.0,480.0,374.0,1402.0,1245.0,0.0,0.0,0.0,0.016,1681843437.87
511,-231.0,-56.0,346.0,930.0,688.0,-139.0,0.0,0.0,0.0,0.016,1681843437.95
512,-64.0,-75.0,465.0,549.0,59.0,54.0,0.0,0.0,0.0,0.016,1681843438.03
513,-177.0,-32.0,492.0,265.0,226.0,164.0,0.0,0.0,0.0,0.016,1681843438.11
514,-59.0,-38.0,494.0,258.0,220.0,165.0,0.0,0.0,0.0,0.016,1681843438.19
515,-61.0,-10.0,459.0,262.0,219.0,164.0,0.0,0.0,0.0,0.016,1681843438.27
516,-20.0,-14.0,482.0,262.0,219.0,162.0,0.0,0.0,0.0,0.016,1681843438.35
517,-19.0,-28.0,510.0,260.0,214.0,157.0,0.0,0.0,0.0,0.016,1681843438.43
518,-42.0,-12.0,514.0,-191.0,-676.0,853.0,0.0,0.0,0.0,0.016,1681843438.51
519,8.0,16.0,488.0,168.0,-472.0,763.0,0.0,0.0,0.0,0.016,1681843438.59
520,0.0,29.0,469.0,-405.0,-1167.0,947.0,0.0,0.0,0.0,0.016,1681843438.67
521,65.0,4.0,508.0,-125.0,-387.0,855.0,0.0,0.0,0.0,0.016,1681843438.75
522,11.0,12.0,514.0,65.0,-234.0,800.0,0.0,0.0,0.0,0.016,1681843438.83
523,74.0,-15.0,473.0,-124.0,-706.0,623.0,0.0,0.0,0.0,0.016,1681843438.91
524,123.0,-23.0,460.0,-190.0,-1737.0,693.0,0.0,0.0,0.0,0.016,1681843438.99
525,,,,,,,,,,,
526,,,,,,,,,,,
527,,,,,,,,,,,
528,,,,,,,,,,,
529,,,,,,,,,,,
530,,,,,,,,,,,
531,1500.0,1500.0,1500.0,885.0,1500.0,1500.0,1500.0,1500.0,1500.0,0.016,1681843439.33
532,,,,,,,,,,,
533,259.0,-57.0,372.0,101.0,-343.0,331.0,0.0,0.0,0.0,0.016,1681843439.49
534,247.0,-77.0,455.0,108.0,512.0,168.0,0.0,0.0,0.0,0.016,1681843439.57
535,238.0,-66.0,420.0,94.0,979.0,582.0,0.0,0.0,0.0,0.016,1681843439.65
536,214.0,-77.0,448.0,-80.0,437.0,462.0,0.0,0.0,0.0,0.016,1681843439.73
537,126.0,-80.0,471.0,-106.0,356.0,186.0,0.0,0.0,0.0,0.016,1681843439.81
538,159.0,-96.0,491.0,-44.0,819.0,69.0,0.0,0.0,0.0,0.016,1681843439.89
539,130.0,-95.0,435.0,-301.0,406.0,-101.0,0.0,0.0,0.0,0.016,1681843439.97
540,93.0,-84.0,445.0,-272.0,-111.0,-175.0,0.0,0.0,0.0,0.016,1681843440.05
541,101.0,-78.0,450.0,-76.0,-92.0,-202.0,0.0,0.0,0.0,0.016,1681843440.13
542,52.0,-73.0,450.0,-51.0,119.0,-161.0,0.0,0.0,0.0,0.016,1681843440.21
543,22.0,-80.0,513.0,106.0,1075.0,-373.0,0.0,0.0,0.0,0.016,1681843440.29
544,,,,,,,,,,,
545,,,,,,,,,,,
546,,,,,,,,,,,
547,,,,,,,,,,,
548,1500.0,1500.0,1500.0,885.0,1500.0,1500.0,1500.0,1500.0,1500.0,0.015,1681843440.56
549,-58.0,-91.0,469.0,-99.0,241.0,-886.0,0.0,0.0,0.0,0.016,1681843440.64
550,-41.0,-98.0,460.0,-17.0,368.0,-612.0,0.0,0.0,0.0,0.016,1681843440.72
551,-34.0,-123.0,477.0,134.0,497.0,-425.0,0.0,0.0,0.0,0.016,1681843440.80
552,-28.0,-127.0,468.0,33.0,359.0,-581.0,0.0,0.0,0.0,0.016,1681843440.88
553,-51.0,-118.0,465.0,32.0,133.0,-468.0,0.0,0.0,0.0,0.016,1681843440.96
554,-68.0,-121.0,487.0,12.0,256.0,-578.0,0.0,0.0,0.0,0.016,1681843441.04
555,-86.0,-116.0,439.0,85.0,240.0,-533.0,0.0,0.0,0.0,0.016,1681843441.12
556,-67.0,-126.0,471.0,39.0,221.0,-503.0,0.0,0.0,0.0,0.016,1681843441.20
557,-105.0,-120.0,470.0,43.0,167.0,-654.0,0.0,0.0,0.0,0.016,1681843441.28
558,-91.0,-117.0,450.0,38.0,204.0,-481.0,0.0,0.0,0.0,0.016,1681843441.36
559,-91.0,-118.0,465.0,76.0,224.0,-521.0,0.0,0.0,0.0,0.016,1681843441.44
560,-75.0,-127.0,484.0,112.0,144.0,-534.0,0.0,0.0,0.0,0.016,1681843441.52
561,-65.0,-128.0,462.0,67.0,255.0,-519.0,0.0,0.0,0.0,0.016,1681843441.60
562,-78.0,-128.0,470.0,60.0,218.0,-524.0,0.0,0.0,0.0,0.016,1681843441.68
563,-76.0,-129.0,473.0,54.0,172.0,-588.0,0.0,0.0,0.0,0.016,1681843441.76
564,-51.0,-125.0,446.0,101.0,-37.0,-756.0,0.0,0.0,0.0,0.016,1681843441.84
565,-25.0,-135.0,473.0,148.0,60.0,-580.0,0.0,0.0,0.0,0.016,1681843441.92
566,-42.0,-134.0,476.0,102.0,50.0,-538.0,0.0,0.0,0.0,0.016,1681843442.00
567,-50.0,-140.0,475.0,-36.0,91.0,-532.0,0.0,0.0,0.0,0.016,1681843442.08
568,-55.0,-140.0,457.0,24.0,132.0,-438.0,0.0,0.0,0.0,0.016,1681843442.16
569,-67.0,-142.0,455.0,60.0,146.0,-483.0,0.0,0.0,0.0,0.016,1681843442.24
570,-65.0,-131.0,465.0,179.0,81.0,-437.0,0.0,0.0,0.0,0.016,1681843442.32
571,-11.0,-121.0,447.0,259.0,17.0,-369.0,0.0,0.0,0.0,0.016,1681843442.40
572,-36.0,-96.0,473.0,251.0,68.0,-403.0,0.0,0.0,0.0,0.016,1681843442.48
573,-10.0,-93.0,462.0,241.0,-68.0,-349.0,0.0,0.0,0.0,0.016,1681843442.56
574,-1.0,-80.0,477.0,315.0,-92.0,-279.0,0.0,0.0,0.0,0.016,1681843442.64
575,-23.0,-72.0,519.0,170.0,-94.0,-250.0,0.0,0.0,0.0,0.016,1681843442.72
576,22.0,-71.0,456.0,93.0,8.0,-212.0,0.0,0.0,0.0,0.016,1681843442.80
577,-10.0,-62.0,453.0,197.0,-327.0,-180.0,0.0,0.0,0.0,0.016,1681843442.88
578,15.0,-52.0,512.0,316.0,-133.0,-23.0,0.0,0.0,0.0,0.016,1681843442.96
579,0.0,-35.0,525.0,264.0,-200.0,-34.0,0.0,0.0,0.0,0.016,1681843443.04
580,41.0,-38.0,517.0,247.0,-83.0,53.0,0.0,0.0,0.0,0.016,1681843443.12
581,32.0,-21.0,536.0,28.0,66.0,47.0,0.0,0.0,0.0,0.016,1681843443.20
582,,,,,,,,,,,
583,49.0,-30.0,505.0,109.0,58.0,112.0,0.0,0.0,0.0,0.016,1681843443.34
584,29.0,-21.0,498.0,-27.0,115.0,181.0,0.0,0.0,0.0,0.016,1681843443.42
585,3.0,-18.0,504.0,-93.0,-52.0,48.0,0.0,0.0,0.0,0.016,1681843443.50
586,11.0,-27.0,505.0,-55.0,121.0,154.0,0.0,0.0,0.0,0.016,1681843443.58
587,17.0,-27.0,473.0,-87.0,198.0,265.0,0.0,0.0,0.0,0.016,1681843443.66
588,13.0,-26.0,487.0,38.0,57.0,298.0,0.0,0.0,0.0,0.016,1681843443.74
589,-19.0,-35.0,478.0,54.0,23.0,267.0,0.0,0.0,0.0,0.016,1681843443.82
590,-4.0,-49.0,498.0,-60.0,74.0,300.0,0.0,0.0,0.0,0.016,1681843443.90
591,-27.0,-32.0,488.0,-16.0,31.0,299.0,0.0,0.0,0.0,0.016,1681843443.98
592,-28.0,-28.0,499.0,-53.0,11.0,325.0,0.0,0.0,0.0,0.016,1681843444.06
593,1.0,-42.0,471.0,-2.0,38.0,416.0,0.0,0.0,0.0,0.016,1681843444.14
594,-11.0,-25.0,432.0,-61.0,45.0,536.0,0.0,0.0,0.0,0.016,1681843444.22
595,-5.0,-31.0,489.0,86.0,-193.0,467.0,0.0,0.0,0.0,0.016,1681843444.30
596,-37.0,-33.0,470.0,124.0,-374.0,357.0,0.0,0.0,0.0,0.016,1681843444.38
597,-20.0,-35.0,500.0,142.0,-91.0,606.0,0.0,0.0,0.0,0.016,1681843444.46
598,-82.0,-39.0,521.0,136.0,-100.0,406.0,0.0,0.0,0.0,0.016,1681843444.54
599,-69.0,-40.0,501.0,-2.0,-24.0,233.0,0.0,0.0,0.0,0.016,1681843444.62
600,-35.0,-69.0,499.0,31.0,-124.0,199.0,0.0,0.0,0.0,0.016,1681843444.70
601,-56.0,-37.0,499.0,-47.0,-25.0,172.0,0.0,0.0,0.0,0.016,1681843444.78
602,1500.0,1500.0,1500.0,885.0,1500.0,1500.0,1500.0,1500.0,1500.0,0.016,1681843444.85
603,19.0,-29.0,429.0,89.0,-85.0,122.0,0.0,0.0,0.0,0.016,1681843444.93
604,-8.0,-25.0,490.0,149.0,-103.0,65.0,0.0,0.0,0.0,0.016,1681843445.01
605,-26.0,-37.0,499.0,38.0,-67.0,-39.0,0.0,0.0,0.0,0.016,1681843445.09
606,2.0,-48.0,517.0,33.0,30.0,6.0,0.0,0.0,0.0,0.016,1681843445.17
607,-12.0,-42.0,505.0,-62.0,-10.0,-92.0,0.0,0.0,0.0,0.016,1681843445.25
608,1.0,-36.0,488.0,-51.0,-18.0,-60.0,0.0,0.0,0.0,0.016,1681843445.33
609,-1.0,-32.0,488.0,-26.0,-4.0,-59.0,0.0,0.0,0.0,0.016,1681843445.41
610,9.0,-46.0,489.0,-5.0,3.0,-21.0,0.0,0.0,0.0,0.016,1681843445.49
611,0.0,-41.0,486.0,13.0,38.0,-9.0,0.0,0.0,0.0,0.016,1681843445.57
612,0.0,-44.0,479.0,58.0,-23.0,-7.0,0.0,0.0,0.0,0.016,1681843445.65
613,3.0,-34.0,490.0,45.0,6.0,-24.0,0.0,0.0,0.0,0.016,1681843445.73
614,9.0,-36.0,481.0,58.0,40.0,15.0,0.0,0.0,0.0,0.016,1681843445.81
615,29.0,-41.0,466.0,239.0,-209.0,130.0,0.0,0.0,0.0,0.016,1681843445.89
616,81.0,13.0,414.0,861.0,-495.0,545.0,0.0,0.0,0.0,0.016,1681843445.97
617,-14.0,-21.0,552.0,498.0,-890.0,-16.0,0.0,0.0,0.0,0.016,1681843446.05
618,55.0,-7.0,473.0,-123.0,-149.0,72.0,0.0,0.0,0.0,0.015,1681843446.12
619,11.0,108.0,529.0,-122.0,680.0,-2880.0,0.0,0.0,0.0,0.015,1681843446.21
620,41.0,33.0,509.0,-891.0,2047.0,-1887.0,0.0,0.0,0.0,0.015,1681843446.29
621,22.0,-48.0,487.0,-173.0,-143.0,-1784.0,0.0,0.0,0.0,0.015,1681843446.37
622,1.0,-46.0,452.0,-707.0,54.0,-1194.0,0.0,0.0,0.0,0.015,1681843446.45
623,57.0,-42.0,491.0,272.0,-528.0,-1194.0,0.0,0.0,0.0,0.015,1681843446.53
624,61.0,4.0,485.0,666.0,-110.0,-1310.0,0.0,0.0,0.0,0.015,1681843446.61
625,194.0,0.0,468.0,588.0,-888.0,-466.0,0.0,0.0,0.0,0.015,1681843446.69
626,92.0,35.0,486.0,351.0,-60.0,-359.0,0.0,0.0,0.0,0.015,1681843446.77
627,58.0,46.0,458.0,39.0,-724.0,-592.0,0.0,0.0,0.0,0.015,1681843446.85
628,-6.0,141.0,511.0,-1399.0,-394.0,-1532.0,0.0,0.0,0.0,0.015,1681843446.93
629,18.0,17.0,547.0,-958.0,780.0,-1743.0,0.0,0.0,0.0,0.015,1681843447.01
630,86.0,-14.0,433.0,45.0,309.0,-2387.0,0.0,0.0,0.0,0.015,1681843447.09
631,178.0,78.0,487.0,423.0,321.0,-2309.0,0.0,0.0,0.0,0.015,1681843447.17
632,245.0,65.0,554.0,1041.0,1167.0,-2246.0,0.0,0.0,0.0,0.015,1681843447.25
633,42.0,31.0,515.0,-1753.0,2301.0,-2110.0,0.0,0.0,0.0,0.015,1681843447.33
634,7.0,78.0,554.0,1297.0,1925.0,-1257.0,0.0,0.0,0.0,0.015,1681843447.41
635,7.0,160.0,535.0,472.0,767.0,-1634.0,0.0,0.0,0.0,0.015,1681843447.49
636,-14.0,185.0,496.0,921.0,-102.0,-802.0,0.0,0.0,0.0,0.015,1681843447.57
637,-101.0,122.0,368.0,908.0,97.0,-1034.0,0.0,0.0,0.0,0.015,1681843447.65
638,-89.0,229.0,451.0,257.0,499.0,-922.0,0.0,0.0,0.0,0.015,1681843447.73
639,-94.0,240.0,478.0,822.0,-189.0,-1020.0,0.0,0.0,0.0,0.015,1681843447.81
640,,,,,,,,,,,
641,1500.0,1500.0,1500.0,885.0,1500.0,1500.0,1500.0,1500.0,1500.0,0.015,1681843447.93
642,-108.0,260.0,381.0,402.0,-3.0,-562.0,0.0,0.0,0.0,0.015,1681843448.01
643,-90.0,245.0,454.0,196.0,-258.0,-138.0,0.0,0.0,0.0,0.015,1681843448.09
644,-144.0,266.0,415.0,288.0,58.0,-328.0,0.0,0.0,0.0,0.015,1681843448.17
645,-104.0,281.0,411.0,-116.0,120.0,-46.0,0.0,0.0,0.0,0.016,1681843448.25
646,-127.0,259.0,392.0,-95.0,166.0,-186.0,0.0,0.0,0.0,0.016,1681843448.33
647,-125.0,238.0,441.0,-221.0,154.0,-205.0,0.0,0.0,0.0,0.016,1681843448.41
648,-88.0,289.0,450.0,-135.0,-105.0,119.0,0.0,0.0,0.0,0.016,1681843448.49
649,-113.0,269.0,400.0,2.0,-62.0,66.0,0.0,0.0,0.0,0.016,1681843448.57
650,-87.0,276.0,443.0,-119.0,-22.0,53.0,0.0,0.0,0.0,0.015,1681843448.65
651,-79.0,281.0,427.0,-412.0,-152.0,596.0,0.0,0.0,0.0,0.016,1681843448.73
652,-27.0,250.0,462.0,-863.0,-183.0,976.0,0.0,0.0,0.0,0.016,1681843448.81
653,-53.0,215.0,489.0,-654.0,-110.0,916.0,0.0,0.0,0.0,0.016,1681843448.89
654,-35.0,206.0,454.0,-395.0,49.0,705.0,0.0,0.0,0.0,0.015,1681843448.97
655,-23.0,220.0,364.0,154.0,523.0,1378.0,0.0,0.0,0.0,0.015,1681843449.05
656,-95.0,175.0,448.0,-758.0,343.0,1565.0,0.0,0.0,0.0,0.016,1681843449.13
657,-65.0,158.0,488.0,-730.0,446.0,1192.0,0.0,0.0,0.0,0.016,1681843449.21
658,-47.0,138.0,481.0,-690.0,258.0,867.0,0.0,0.0,0.0,0.016,1681843449.29
659,,,,,,,,,,,
660,,,,,,,,,,,
661,,,,,,,,,,,
662,-8.0,123.0,502.0,-831.0,223.0,1123.0,0.0,0.0,0.0,0.001,1681843449.39
663,,,,,,,,,,,
664,-99.0,35.0,419.0,-368.0,447.0,1074.0,0.0,0.0,0.0,0.016,1681843449.53
665,,,,,,,,,,,
666,,,,,,,,,,,
667,1500.0,1500.0,1500.0,885.0,1500.0,1500.0,1500.0,1500.0,1500.0,0.015,1681843449.77
668,-34.0,-60.0,410.0,120.0,-471.0,3126.0,0.0,0.0,0.0,0.016,1681843449.85
669,-32.0,35.0,655.0,-267.0,1024.0,966.0,0.0,0.0,0.0,0.016,1681843449.93
670,-14.0,59.0,559.0,-1103.0,-574.0,874.0,0.0,0.0,0.0,0.015,1681843450.01
671,1.0,-6.0,524.0,-647.0,317.0,1271.0,0.0,0.0,0.0,0.016,1681843450.09
672,-40.0,-88.0,541.0,-686.0,915.0,577.0,0.0,0.0,0.0,0.016,1681843450.17
673,-74.0,-87.0,478.0,-99.0,-506.0,1375.0,0.0,0.0,0.0,0.015,1681843450.25
674,79.0,-128.0,425.0,-510.0,-2045.0,1672.0,0.0,0.0,0.0,0.016,1681843450.33
675,-81.0,17.0,469.0,-1605.0,-501.0,2660.0,0.0,0.0,0.0,0.015,1681843450.41
676,33.0,-177.0,460.0,-54.0,-194.0,1688.0,0.0,0.0,0.0,0.015,1681843450.49
677,48.0,-154.0,481.0,12.0,-1280.0,1251.0,0.0,0.0,0.0,0.015,1681843450.57
678,,,,,,,,,,,
679,,,,,,,,,,,
680,,,,,,,,,,,
681,1500.0,1500.0,1500.0,885.0,1500.0,1500.0,1500.0,1500.0,1500.0,0.015,1681843450.75
682,,,,,,,,,,,
683,-99.0,-16.0,492.0,1.0,-764.0,-419.0,0.0,0.0,0.0,0.015,1681843450.91
684,-41.0,-14.0,492.0,524.0,754.0,641.0,0.0,0.0,0.0,0.016,1681843450.99
685,-79.0,13.0,480.0,255.0,246.0,189.0,0.0,0.0,0.0,0.015,1681843451.07
686,-59.0,20.0,492.0,499.0,138.0,36.0,0.0,0.0,0.0,0.015,1681843451.15
687,-78.0,46.0,566.0,-614.0,-1679.0,-639.0,0.0,0.0,0.0,0.015,1681843451.23
688,41.0,-24.0,418.0,-83.0,-765.0,-750.0,0.0,0.0,0.0,0.015,1681843451.31
689,131.0,-14.0,427.0,780.0,-1512.0,-60.0,0.0,0.0,0.0,0.015,1681843451.39
690,44.0,23.0,597.0,-988.0,22.0,22.0,0.0,0.0,0.0,0.015,1681843451.47
691,171.0,-80.0,335.0,-3156.0,-162.0,-1535.0,0.0,0.0,0.0,0.015,1681843451.55
692,77.0,-170.0,319.0,-1222.0,-6785.0,-1241.0,0.0,0.0,0.0,0.015,1681843451.63
693,215.0,-145.0,318.0,-142.0,-2688.0,-3054.0,0.0,0.0,0.0,0.015,1681843451.71
694,213.0,-175.0,491.0,-611.0,-1045.0,-1021.0,0.0,0.0,0.0,0.015,1681843451.79
695,261.0,-208.0,313.0,-1274.0,1885.0,-330.0,0.0,0.0,0.0,0.015,1681843451.87
696,-140.0,-136.0,461.0,2020.0,-932.0,-955.0,0.0,0.0,0.0,0.016,1681843451.95
697,,,,,,,,,,,
698,9.0,-194.0,385.0,-221.0,39.0,-672.0,0.0,0.0,0.0,0.016,1681843452.09
699,-142.0,-236.0,402.0,-558.0,893.0,-1694.0,0.0,0.0,0.0,0.016,1681843452.17
700,298.0,-332.0,82.0,-1049.0,862.0,-3126.0,0.0,0.0,0.0,0.016,1681843452.25
701,188.0,-169.0,181.0,2467.0,-5229.0,-5915.0,0.0,0.0,0.0,0.015,1681843452.33
702,185.0,-288.0,397.0,226.0,2363.0,-1894.0,0.0,0.0,0.0,0.016,1681843452.41
703,161.0,-153.0,367.0,110.0,1081.0,-1646.0,0.0,0.0,0.0,0.016,1681843452.49
704,161.0,-101.0,476.0,235.0,314.0,-2507.0,0.0,0.0,0.0,0.016,1681843452.57
705,96.0,-139.0,509.0,-112.0,1192.0,-2751.0,0.0,0.0,0.0,0.016,1681843452.65
706,49.0,-94.0,530.0,-292.0,1465.0,-2467.0,0.0,0.0,0.0,0.016,1681843452.73
707,100.0,-38.0,526.0,199.0,1601.0,-2032.0,0.0,0.0,0.0,0.016,1681843452.81
708,29.0,-37.0,524.0,168.0,1199.0,-1666.0,0.0,0.0,0.0,0.016,1681843452.89
709,-52.0,-24.0,474.0,382.0,913.0,-1503.0,0.0,0.0,0.0,0.016,1681843452.97
710,-73.0,-22.0,467.0,935.0,1368.0,-1237.0,0.0,0.0,0.0,0.015,1681843453.05
711,-18.0,91.0,425.0,1120.0,1612.0,-1103.0,0.0,0.0,0.0,0.016,1681843453.13
712,-152.0,18.0,526.0,677.0,1035.0,-892.0,0.0,0.0,0.0,0.016,1681843453.21
713,-188.0,73.0,506.0,81.0,429.0,-283.0,0.0,0.0,0.0,0.016,1681843453.29
714,-206.0,59.0,452.0,-26.0,-44.0,16.0,0.0,0.0,0.0,0.016,1681843453.37
715,-210.0,72.0,430.0,-14.0,19.0,-18.0,0.0,0.0,0.0,0.016,1681843453.45
716,,,,,,,,,,,
717,,,,,,,,,,,
718,,,,,,,,,,,
719,1500.0,1500.0,1500.0,885.0,1500.0,1500.0,1500.0,1500.0,1500.0,0.015,1681843453.69
720,-133.0,61.0,448.0,-73.0,5.0,2.0,0.0,0.0,0.0,0.016,1681843453.77
721,-197.0,41.0,452.0,-209.0,239.0,-23.0,0.0,0.0,0.0,0.016,1681843453.85
722,-191.0,42.0,476.0,-195.0,77.0,-15.0,0.0,0.0,0.0,0.016,1681843453.93
723,-234.0,4.0,491.0,-200.0,3.0,112.0,0.0,0.0,0.0,0.016,1681843454.01
724,-152.0,43.0,480.0,254.0,-444.0,769.0,0.0,0.0,0.0,0.016,1681843454.09
725,-4.0,138.0,445.0,782.0,-1478.0,1055.0,0.0,0.0,0.0,0.016,1681843454.17
726,-116.0,98.0,493.0,29.0,463.0,722.0,0.0,0.0,0.0,0.016,1681843454.25
727,-106.0,141.0,478.0,661.0,-624.0,547.0,0.0,0.0,0.0,0.016,1681843454.33
728,-159.0,75.0,436.0,-440.0,-858.0,1132.0,0.0,0.0,0.0,0.016,1681843454.41
729,82.0,156.0,564.0,-140.0,-1552.0,2527.0,0.0,0.0,0.0,0.016,1681843454.49
730,10.0,71.0,548.0,-477.0,-1420.0,3048.0,0.0,0.0,0.0,0.016,1681843454.57
731,-90.0,81.0,382.0,-914.0,-362.0,2682.0,0.0,0.0,0.0,0.015,1681843454.65
732,-96.0,14.0,435.0,-277.0,31.0,2481.0,0.0,0.0,0.0,0.015,1681843454.73
733,22.0,30.0,518.0,-118.0,501.0,3051.0,0.0,0.0,0.0,0.015,1681843454.81
734,-108.0,-36.0,557.0,-498.0,603.0,2231.0,0.0,0.0,0.0,0.015,1681843454.89
735,-120.0,-20.0,584.0,-12.0,-841.0,1501.0,0.0,0.0,0.0,0.015,1681843454.97
736,,,,,,,,,,,
737,-79.0,26.0,494.0,-682.0,403.0,2045.0,0.0,0.0,0.0,0.015,1681843455.10
738,-4.0,-68.0,510.0,-664.0,135.0,2062.0,0.0,0.0,0.0,0.015,1681843455.18
739,-80.0,-58.0,513.0,-226.0,501.0,2287.0,0.0,0.0,0.0,0.016,1681843455.26
740,-115.0,-40.0,518.0,-388.0,235.0,1850.0,0.0,0.0,0.0,0.016,1681843455.34
741,-147.0,-45.0,520.0,175.0,-421.0,823.0,0.0,0.0,0.0,0.016,1681843455.42
742,-112.0,-65.0,464.0,68.0,213.0,2.0,0.0,0.0,0.0,0.015,1681843455.50
743,-156.0,-39.0,458.0,24.0,-227.0,-298.0,0.0,0.0,0.0,0.016,1681843455.58
744,-130.0,-21.0,513.0,-81.0,235.0,-134.0,0.0,0.0,0.0,0.016,1681843455.66
745,-105.0,-33.0,491.0,120.0,-368.0,-202.0,0.0,0.0,0.0,0.016,1681843455.74
746,-98.0,-26.0,478.0,-26.0,-123.0,-139.0,0.0,0.0,0.0,0.016,1681843455.82
747,-102.0,-30.0,478.0,-26.0,108.0,-22.0,0.0,0.0,0.0,0.015,1681843455.90
748,-74.0,-32.0,475.0,-87.0,-534.0,90.0,0.0,0.0,0.0,0.016,1681843455.98
749,42.0,21.0,480.0,395.0,-2910.0,-422.0,0.0,0.0,0.0,0.016,1681843456.06
750,107.0,-8.0,441.0,618.0,-2219.0,-1122.0,0.0,0.0,0.0,0.016,1681843456.14
751,3.0,23.0,481.0,-561.0,201.0,-247.0,0.0,0.0,0.0,0.015,1681843456.22
752,120.0,-6.0,520.0,-326.0,1025.0,-110.0,0.0,0.0,0.0,0.015,1681843456.30
753,79.0,-21.0,476.0,-18.0,620.0,127.0,0.0,0.0,0.0,0.016,1681843456.38
754,15.0,-33.0,484.0,24.0,302.0,217.0,0.0,0.0,0.0,0.016,1681843456.46
755,1500.0,1500.0,1500.0,885.0,1500.0,1500.0,1500.0,1500.0,1500.0,0.015,1681843456.53
756,-45.0,-46.0,541.0,-316.0,293.0,65.0,0.0,0.0,0.0,0.016,1681843456.61
757,-48.0,-59.0,544.0,-255.0,469.0,-153.0,0.0,0.0,0.0,0.015,1681843456.69
758,-65.0,-73.0,537.0,-668.0,983.0,-111.0,0.0,0.0,0.0,0.015,1681843456.77
759,-70.0,-104.0,469.0,-857.0,892.0,3.0,0.0,0.0,0.0,0.016,1681843456.85
760,-121.0,-126.0,431.0,-944.0,-93.0,-432.0,0.0,0.0,0.0,0.016,1681843456.93
761,-109.0,-179.0,431.0,-919.0,179.0,-261.0,0.0,0.0,0.0,0.016,1681843457.01
762,-90.0,-207.0,400.0,-516.0,-451.0,-181.0,0.0,0.0,0.0,0.015,1681843457.09
763,-74.0,-228.0,420.0,-581.0,-207.0,-159.0,0.0,0.0,0.0,0.015,1681843457.17
764,-58.0,-245.0,414.0,-432.0,-534.0,-185.0,0.0,0.0,0.0,0.016,1681843457.25
765,-61.0,-260.0,418.0,-593.0,65.0,-4.0,0.0,0.0,0.0,0.016,1681843457.33
766,-3.0,-307.0,395.0,-491.0,-277.0,-97.0,0.0,0.0,0.0,0.016,1681843457.41
767,-39.0,-312.0,469.0,-1379.0,802.0,-692.0,0.0,0.0,0.0,0.015,1681843457.49
768,30.0,-331.0,283.0,-501.0,16.0,7.0,0.0,0.0,0.0,0.016,1681843457.57
769,-1.0,-365.0,313.0,-677.0,219.0,-110.0,0.0,0.0,0.0,0.016,1681843457.65
770,-2.0,-341.0,276.0,-317.0,-18.0,-286.0,0.0,0.0,0.0,0.016,1681843457.73
771,-41.0,-383.0,255.0,-445.0,244.0,-74.0,0.0,0.0,0.0,0.016,1681843457.81
772,-42.0,-383.0,260.0,-498.0,476.0,-273.0,0.0,0.0,0.0,0.015,1681843457.89
773,-34.0,-410.0,288.0,-276.0,172.0,-108.0,0.0,0.0,0.0,0.016,1681843457.97
774,,,,,,,,,,,
775,,,,,,,,,,,
776,1500.0,1500.0,1500.0,885.0,1500.0,1500.0,1500.0,1500.0,1500.0,0.015,1681843458.14
777,-35.0,-421.0,395.0,666.0,489.0,-667.0,0.0,0.0,0.0,0.016,1681843458.22
778,-30.0,-322.0,272.0,-136.0,436.0,-717.0,0.0,0.0,0.0,0.015,1681843458.30
779,30.0,-397.0,246.0,-290.0,-298.0,-663.0,0.0,0.0,0.0,0.016,1681843458.38
780,88.0,-343.0,291.0,105.0,-633.0,-293.0,0.0,0.0,0.0,0.016,1681843458.46
781,50.0,-348.0,298.0,-106.0,18.0,-253.0,0.0,0.0,0.0,0.016,1681843458.54
782,86.0,-346.0,339.0,767.0,-365.0,-444.0,0.0,0.0,0.0,0.016,1681843458.62
783,97.0,-335.0,407.0,2182.0,1262.0,-637.0,0.0,0.0,0.0,0.015,1681843458.70
784,83.0,-320.0,295.0,1137.0,-608.0,-54.0,0.0,0.0,0.0,0.016,1681843458.78
785,147.0,-251.0,428.0,997.0,-148.0,-60.0,0.0,0.0,0.0,0.016,1681843458.86
786,137.0,-180.0,390.0,1876.0,-601.0,514.0,0.0,0.0,0.0,0.015,1681843458.94
787,130.0,-136.0,461.0,821.0,-100.0,240.0,0.0,0.0,0.0,0.015,1681843459.02
788,124.0,-89.0,536.0,310.0,165.0,84.0,0.0,0.0,0.0,0.015,1681843459.10
789,143.0,-118.0,455.0,45.0,234.0,36.0,0.0,0.0,0.0,0.016,1681843459.18
790,147.0,-115.0,482.0,179.0,114.0,67.0,0.0,0.0,0.0,0.016,1681843459.26
791,125.0,-102.0,479.0,133.0,198.0,-90.0,0.0,0.0,0.0,0.016,1681843459.34
792,103.0,-92.0,475.0,222.0,120.0,-9.0,0.0,0.0,0.0,0.016,1681843459.42
793,,,,,,,,,,,
794,,,,,,,,,,,
795,,,,,,,,,,,
796,,,,,,,,,,,
797,60.0,-72.0,486.0,67.0,64.0,-12.0,0.0,0.0,0.0,0.016,1681843459.57
798,,,,,,,,,,,
799,,,,,,,,,,,
800,1500.0,1500.0,1500.0,885.0,1500.0,1500.0,1500.0,1500.0,1500.0,0.015,1681843459.81
801,,,,,,,,,,,
802,52.0,-3.0,465.0,908.0,429.0,-106.0,0.0,0.0,0.0,0.016,1681843459.97
803,35.0,74.0,491.0,1109.0,492.0,417.0,0.0,0.0,0.0,0.016,1681843460.05
804,28.0,117.0,427.0,953.0,287.0,440.0,0.0,0.0,0.0,0.016,1681843460.13
805,-38.0,153.0,437.0,982.0,467.0,52.0,0.0,0.0,0.0,0.016,1681843460.21
806,-59.0,209.0,466.0,932.0,662.0,335.0,0.0,0.0,0.0,0.016,1681843460.29
807,-69.0,223.0,419.0,1066.0,383.0,338.0,0.0,0.0,0.0,0.015,1681843460.37
808,-50.0,283.0,449.0,1014.0,442.0,388.0,0.0,0.0,0.0,0.016,1681843460.45
809,-115.0,345.0,424.0,997.0,436.0,238.0,0.0,0.0,0.0,0.016,1681843460.53
810,-66.0,333.0,350.0,825.0,368.0,282.0,0.0,0.0,0.0,0.016,1681843460.61
811,-42.0,355.0,329.0,804.0,344.0,447.0,0.0,0.0,0.0,0.016,1681843460.69
812,,,,,,,,,,,
813,,,,,,,,,,,
814,-101.0,397.0,335.0,702.0,292.0,136.0,0.0,0.0,0.0,0.0,1681843460.77
815,,,,,,,,,,,
816,-98.0,409.0,280.0,560.0,119.0,9.0,0.0,0.0,0.0,0.016,1681843460.93
817,,,,,,,,,,,
818,-94.0,438.0,216.0,829.0,96.0,16.0,0.0,0.0,0.0,0.016,1681843461.09
819,-62.0,472.0,196.0,872.0,-300.0,-126.0,0.0,0.0,0.0,0.016,1681843461.17
820,-32.0,451.0,201.0,765.0,-322.0,-316.0,0.0,0.0,0.0,0.016,1681843461.25
821,-89.0,549.0,213.0,635.0,-108.0,-126.0,0.0,0.0,0.0,0.015,1681843461.32
822,-43.0,520.0,151.0,284.0,-80.0,-216.0,0.0,0.0,0.0,0.015,1681843461.40
823,-60.0,521.0,118.0,82.0,-417.0,62.0,0.0,0.0,0.0,0.015,1681843461.48
824,-85.0,523.0,75.0,43.0,-147.0,94.0,0.0,0.0,0.0,0.015,1681843461.56
825,-16.0,545.0,99.0,-1147.0,-482.0,261.0,0.0,0.0,0.0,0.015,1681843461.64
826,-2.0,606.0,625.0,-6004.0,-966.0,-179.0,0.0,0.0,0.0,0.015,1681843461.72
827,30.0,333.0,313.0,-2011.0,-758.0,-242.0,0.0,0.0,0.0,0.015,1681843461.80
828,-134.0,314.0,444.0,-1450.0,666.0,-571.0,0.0,0.0,0.0,0.015,1681843461.88
829,-80.0,293.0,524.0,118.0,1331.0,1240.0,0.0,0.0,0.0,0.015,1681843461.96
830,-117.0,250.0,447.0,-1080.0,-675.0,202.0,0.0,0.0,0.0,0.015,1681843462.04
831,,,,,,,,,,,
832,1500.0,1500.0,1500.0,885.0,1500.0,1500.0,1500.0,1500.0,1500.0,0.015,1681843462.17
833,74.0,198.0,468.0,-277.0,-156.0,66.0,0.0,0.0,0.0,0.015,1681843462.25
834,112.0,189.0,391.0,-165.0,-198.0,102.0,0.0,0.0,0.0,0.015,1681843462.33
835,57.0,193.0,446.0,481.0,-326.0,-208.0,0.0,0.0,0.0,0.015,1681843462.41
836,83.0,197.0,533.0,142.0,963.0,242.0,0.0,0.0,0.0,0.015,1681843462.49
837,87.0,190.0,454.0,253.0,326.0,92.0,0.0,0.0,0.0,0.015,1681843462.57
838,-5.0,231.0,434.0,531.0,-853.0,-694.0,0.0,0.0,0.0,0.015,1681843462.65
839,115.0,229.0,489.0,-162.0,1131.0,-201.0,0.0,0.0,0.0,0.016,1681843462.73
840,43.0,230.0,527.0,-98.0,64.0,-254.0,0.0,0.0,0.0,0.016,1681843462.81
841,11.0,245.0,423.0,-285.0,-227.0,-218.0,0.0,0.0,0.0,0.016,1681843462.89
842,47.0,213.0,475.0,-472.0,212.0,142.0,0.0,0.0,0.0,0.016,1681843462.97
843,20.0,203.0,476.0,-454.0,135.0,78.0,0.0,0.0,0.0,0.016,1681843463.05
844,27.0,169.0,495.0,-324.0,11.0,-36.0,0.0,0.0,0.0,0.015,1681843463.13
845,23.0,158.0,448.0,-237.0,111.0,1.0,0.0,0.0,0.0,0.015,1681843463.21
846,-2.0,168.0,415.0,-92.0,-95.0,38.0,0.0,0.0,0.0,0.016,1681843463.29
847,27.0,150.0,469.0,-126.0,11.0,-12.0,0.0,0.0,0.0,0.016,1681843463.37
848,-2.0,161.0,507.0,118.0,52.0,9.0,0.0,0.0,0.0,0.016,1681843463.45
849,-11.0,110.0,514.0,-226.0,-119.0,79.0,0.0,0.0,0.0,0.016,1681843463.53
850,,,,,,,,,,,
851,,,,,,,,,,,
852,1500.0,1500.0,1500.0,885.0,1500.0,1500.0,1500.0,1500.0,1500.0,0.015,1681843463.73
853,37.0,66.0,483.0,-567.0,-276.0,28.0,0.0,0.0,0.0,0.016,1681843463.81
854,9.0,57.0,453.0,-988.0,225.0,-288.0,0.0,0.0,0.0,0.016,1681843463.89
855,65.0,3.0,469.0,22.0,552.0,-42.0,0.0,0.0,0.0,0.016,1681843463.97
856,46.0,12.0,436.0,-119.0,1511.0,748.0,0.0,0.0,0.0,0.016,1681843464.05
857,-151.0,77.0,466.0,-819.0,2559.0,675.0,0.0,0.0,0.0,0.016,1681843464.13
858,-187.0,-47.0,521.0,519.0,170.0,268.0,0.0,0.0,0.0,0.016,1681843464.21
859,-176.0,-22.0,476.0,225.0,-184.0,242.0,0.0,0.0,0.0,0.016,1681843464.29
860,-239.0,-14.0,427.0,-303.0,-147.0,303.0,0.0,0.0,0.0,0.016,1681843464.37
861,-247.0,1.0,358.0,-175.0,690.0,168.0,0.0,0.0,0.0,0.016,1681843464.45
862,-323.0,34.0,349.0,861.0,145.0,359.0,0.0,0.0,0.0,0.016,1681843464.53
863,-301.0,3.0,411.0,-445.0,105.0,313.0,0.0,0.0,0.0,0.016,1681843464.61
864,-366.0,2.0,411.0,-651.0,436.0,83.0,0.0,0.0,0.0,0.016,1681843464.69
865,-296.0,-38.0,365.0,-374.0,638.0,-369.0,0.0,0.0,0.0,0.016,1681843464.77
866,-334.0,-30.0,333.0,-692.0,510.0,-321.0,0.0,0.0,0.0,0.016,1681843464.85
867,-359.0,-55.0,300.0,-362.0,-893.0,-170.0,0.0,0.0,0.0,0.016,1681843464.93
868,-317.0,-91.0,369.0,198.0,-921.0,110.0,0.0,0.0,0.0,0.016,1681843465.01
869,-265.0,-80.0,368.0,1025.0,-537.0,778.0,0.0,0.0,0.0,0.016,1681843465.09
870,,,,,,,,,,,
871,-243.0,-51.0,430.0,-251.0,-580.0,65.0,0.0,0.0,0.0,0.016,1681843465.21
872,-228.0,-56.0,421.0,48.0,-507.0,142.0,0.0,0.0,0.0,0.016,1681843465.29
873,-226.0,-44.0,428.0,-32.0,-552.0,70.0,0.0,0.0,0.0,0.016,1681843465.37
874,-172.0,-43.0,431.0,432.0,-679.0,40.0,0.0,0.0,0.0,0.016,1681843465.45
875,-208.0,-18.0,449.0,193.0,-1335.0,-276.0,0.0,0.0,0.0,0.016,1681843465.53
876,-189.0,4.0,438.0,44.0,-1468.0,-177.0,0.0,0.0,0.0,0.016,1681843465.61
877,-44.0,-43.0,543.0,-422.0,-672.0,37.0,0.0,0.0,0.0,0.016,1681843465.69
878,-31.0,-109.0,574.0,-1948.0,1372.0,2111.0,0.0,0.0,0.0,0.016,1681843465.77
879,30.0,-65.0,478.0,-86.0,-1691.0,555.0,0.0,0.0,0.0,0.016,1681843465.85
880,-21.0,-111.0,447.0,368.0,-678.0,-598.0,0.0,0.0,0.0,0.016,1681843465.93
881,97.0,-21.0,578.0,364.0,-965.0,-259.0,0.0,0.0,0.0,0.016,1681843466.01
882,109.0,-84.0,520.0,-368.0,-816.0,-510.0,0.0,0.0,0.0,0.016,1681843466.09
883,166.0,-65.0,491.0,143.0,-747.0,-802.0,0.0,0.0,0.0,0.016,1681843466.17
884,169.0,-40.0,466.0,58.0,-172.0,-372.0,0.0,0.0,0.0,0.016,1681843466.25
885,186.0,7.0,475.0,676.0,-1092.0,-554.0,0.0,0.0,0.0,0.016,1681843466.33
886,219.0,19.0,437.0,609.0,-1903.0,-328.0,0.0,0.0,0.0,0.015,1681843466.41
887,303.0,20.0,390.0,-199.0,-229.0,-378.0,0.0,0.0,0.0,0.016,1681843466.49
888,323.0,46.0,395.0,-193.0,-334.0,-455.0,0.0,0.0,0.0,0.016,1681843466.57
889,344.0,29.0,385.0,-642.0,-13.0,-399.0,0.0,0.0,0.0,0.015,1681843466.64
890,285.0,35.0,384.0,-275.0,120.0,-458.0,0.0,0.0,0.0,0.016,1681843466.72
891,311.0,35.0,401.0,-459.0,-87.0,-290.0,0.0,0.0,0.0,0.016,1681843466.80
892,269.0,33.0,391.0,-1057.0,-157.0,-275.0,0.0,0.0,0.0,0.016,1681843466.88
893,317.0,6.0,346.0,-144.0,-110.0,-394.0,0.0,0.0,0.0,0.016,1681843466.96
894,348.0,15.0,338.0,233.0,-177.0,-310.0,0.0,0.0,0.0,0.016,1681843467.04
895,344.0,24.0,379.0,531.0,88.0,-558.0,0.0,0.0,0.0,0.016,1681843467.12
896,364.0,41.0,352.0,162.0,-229.0,-109.0,0.0,0.0,0.0,0.016,1681843467.20
897,340.0,42.0,347.0,120.0,-272.0,-94.0,0.0,0.0,0.0,0.016,1681843467.28
898,283.0,66.0,366.0,26.0,-4.0,-354.0,0.0,0.0,0.0,0.016,1681843467.36
899,327.0,67.0,363.0,-171.0,-145.0,-233.0,0.0,0.0,0.0,0.016,1681843467.44
900,348.0,82.0,384.0,-30.0,126.0,-119.0,0.0,0.0,0.0,0.016,1681843467.52
901,331.0,86.0,344.0,-66.0,-30.0,-333.0,0.0,0.0,0.0,0.016,1681843467.60
902,329.0,75.0,337.0,33.0,331.0,-456.0,0.0,0.0,0.0,0.016,1681843467.68
903,321.0,100.0,341.0,206.0,262.0,-389.0,0.0,0.0,0.0,0.016,1681843467.76
904,330.0,107.0,344.0,77.0,31.0,-258.0,0.0,0.0,0.0,0.016,1681843467.84
905,966.0,-215.0,445.0,-372.0,6742.0,344.0,0.0,0.0,0.0,0.016,1681843467.92
906,183.0,146.0,491.0,37.0,465.0,-683.0,0.0,0.0,0.0,0.016,1681843468.00
907,269.0,128.0,480.0,187.0,359.0,370.0,0.0,0.0,0.0,0.016,1681843468.08
908,1500.0,1500.0,1500.0,885.0,1500.0,1500.0,1500.0,1500.0,1500.0,0.014,1681843468.14
909,159.0,181.0,461.0,-35.0,-347.0,-80.0,0.0,0.0,0.0,0.016,1681843468.22
910,254.0,147.0,443.0,-13.0,-160.0,-175.0,0.0,0.0,0.0,0.016,1681843468.30
911,256.0,159.0,436.0,-97.0,-201.0,-266.0,0.0,0.0,0.0,0.016,1681843468.38
912,295.0,155.0,391.0,-88.0,-116.0,-302.0,0.0,0.0,0.0,0.016,1681843468.46
913,309.0,147.0,398.0,-127.0,40.0,-257.0,0.0,0.0,0.0,0.016,1681843468.54
914,279.0,153.0,428.0,-295.0,279.0,-344.0,0.0,0.0,0.0,0.016,1681843468.62
915,244.0,157.0,372.0,-298.0,-195.0,-310.0,0.0,0.0,0.0,0.016,1681843468.70
916,334.0,123.0,344.0,-275.0,-41.0,75.0,0.0,0.0,0.0,0.016,1681843468.78
917,254.0,175.0,502.0,-321.0,-50.0,-17.0,0.0,0.0,0.0,0.016,1681843468.86
918,286.0,124.0,463.0,-246.0,209.0,-50.0,0.0,0.0,0.0,0.015,1681843468.94
919,281.0,128.0,441.0,-55.0,574.0,-257.0,0.0,0.0,0.0,0.015,1681843469.02
920,253.0,166.0,472.0,-65.0,351.0,-193.0,0.0,0.0,0.0,0.015,1681843469.10
921,263.0,132.0,388.0,65.0,717.0,-18.0,0.0,0.0,0.0,0.015,1681843469.18
922,230.0,122.0,470.0,-6.0,700.0,178.0,0.0,0.0,0.0,0.015,1681843469.26
923,168.0,137.0,465.0,-324.0,857.0,210.0,0.0,0.0,0.0,0.015,1681843469.34
924,160.0,114.0,452.0,-116.0,1494.0,109.0,0.0,0.0,0.0,0.015,1681843469.42
925,-70.0,142.0,573.0,-676.0,2573.0,-430.0,0.0,0.0,0.0,0.015,1681843469.50
926,-46.0,107.0,460.0,-115.0,-844.0,-97.0,0.0,0.0,0.0,0.015,1681843469.58
927,,,,,,,,,,,
928,,,,,,,,,,,
929,,,,,,,,,,,
930,,,,,,,,,,,
931,94.0,101.0,490.0,66.0,368.0,129.0,0.0,0.0,0.0,0.015,1681843469.72
932,,,,,,,,,,,
933,,,,,,,,,,,
934,1500.0,1500.0,1500.0,885.0,1500.0,1500.0,1500.0,1500.0,1500.0,0.015,1681843469.96
935,,,,,,,,,,,
936,18.0,104.0,499.0,-141.0,122.0,166.0,0.0,0.0,0.0,0.015,1681843470.12
937,13.0,92.0,487.0,-86.0,122.0,153.0,0.0,0.0,0.0,0.015,1681843470.20
938,18.0,94.0,482.0,-4.0,122.0,202.0,0.0,0.0,0.0,0.015,1681843470.28
939,17.0,91.0,503.0,-148.0,29.0,162.0,0.0,0.0,0.0,0.015,1681843470.36
940,50.0,69.0,513.0,-265.0,-320.0,255.0,0.0,0.0,0.0,0.015,1681843470.45
941,20.0,86.0,512.0,-64.0,29.0,224.0,0.0,0.0,0.0,0.015,1681843470.53
942,36.0,88.0,486.0,-60.0,-81.0,107.0,0.0,0.0,0.0,0.015,1681843470.61
943,9.0,86.0,480.0,-9.0,-49.0,173.0,0.0,0.0,0.0,0.015,1681843470.69
944,-10.0,100.0,505.0,-177.0,-23.0,134.0,0.0,0.0,0.0,0.015,1681843470.77
945,44.0,74.0,486.0,-91.0,52.0,95.0,0.0,0.0,0.0,0.015,1681843470.85
946,,,,,,,,,,,
947,,,,,,,,,,,
948,,,,,,,,,,,
949,,,,,,,,,,,
950,1500.0,1500.0,1500.0,885.0,1500.0,1500.0,1500.0,1500.0,1500.0,0.015,1681843471.07
951,,,,,,,,,,,
952,34.0,65.0,478.0,-43.0,-154.0,-35.0,0.0,0.0,0.0,0.015,1681843471.23
953,28.0,69.0,507.0,35.0,81.0,-6.0,0.0,0.0,0.0,0.016,1681843471.31
954,48.0,62.0,495.0,-91.0,-49.0,-37.0,0.0,0.0,0.0,0.016,1681843471.39
955,43.0,57.0,493.0,-40.0,-6.0,-21.0,0.0,0.0,0.0,0.015,1681843471.47
956,38.0,68.0,489.0,-132.0,-40.0,-91.0,0.0,0.0,0.0,0.016,1681843471.55
957,32.0,57.0,484.0,-51.0,-43.0,-133.0,0.0,0.0,0.0,0.016,1681843471.63
958,33.0,56.0,492.0,-81.0,-10.0,-72.0,0.0,0.0,0.0,0.016,1681843471.71
959,50.0,51.0,489.0,-66.0,24.0,-9.0,0.0,0.0,0.0,0.016,1681843471.79
960,49.0,55.0,494.0,-61.0,-19.0,-20.0,0.0,0.0,0.0,0.016,1681843471.87
961,39.0,48.0,486.0,-42.0,54.0,-38.0,0.0,0.0,0.0,0.016,1681843471.95
962,30.0,50.0,485.0,-9.0,33.0,0.0,0.0,0.0,0.0,0.016,1681843472.03
963,44.0,43.0,490.0,-17.0,-9.0,-28.0,0.0,0.0,0.0,0.016,1681843472.11
964,35.0,43.0,494.0,-28.0,-39.0,-65.0,0.0,0.0,0.0,0.015,1681843472.19
965,,,,,,,,,,,
966,,,,,,,,,,,
967,46.0,38.0,486.0,2.0,-12.0,-12.0,0.0,0.0,0.0,0.015,1681843472.38
968,41.0,44.0,500.0,-20.0,-13.0,-31.0,0.0,0.0,0.0,0.015,1681843472.46
969,57.0,35.0,491.0,-7.0,-41.0,-8.0,0.0,0.0,0.0,0.015,1681843472.54
970,57.0,35.0,496.0,27.0,40.0,35.0,0.0,0.0,0.0,0.015,1681843472.62
971,46.0,36.0,501.0,-19.0,2.0,-8.0,0.0,0.0,0.0,0.015,1681843472.70
972,46.0,39.0,497.0,-13.0,42.0,-17.0,0.0,0.0,0.0,0.015,1681843472.78
973,48.0,36.0,486.0,4.0,-16.0,-48.0,0.0,0.0,0.0,0.015,1681843472.86
974,37.0,41.0,495.0,-23.0,16.0,-26.0,0.0,0.0,0.0,0.015,1681843472.94
975,45.0,33.0,493.0,-27.0,36.0,-2.0,0.0,0.0,0.0,0.015,1681843473.02
976,52.0,34.0,496.0,17.0,21.0,4.0,0.0,0.0,0.0,0.015,1681843473.10
977,44.0,37.0,485.0,23.0,30.0,-6.0,0.0,0.0,0.0,0.015,1681843473.18
978,54.0,29.0,493.0,43.0,-5.0,43.0,0.0,0.0,0.0,0.015,1681843473.26
979,58.0,33.0,490.0,3.0,-26.0,-15.0,0.0,0.0,0.0,0.015,1681843473.34
980,36.0,41.0,492.0,31.0,-17.0,-9.0,0.0,0.0,0.0,0.015,1681843473.42
981,51.0,33.0,496.0,-9.0,29.0,-12.0,0.0,0.0,0.0,0.015,1681843473.50
982,43.0,33.0,496.0,0.0,4.0,-24.0,0.0,0.0,0.0,0.015,1681843473.58
983,36.0,36.0,493.0,-39.0,37.0,-82.0,0.0,0.0,0.0,0.015,1681843473.66
984,,,,,,,,,,,
985,,,,,,,,,,,
986,1500.0,1500.0,1500.0,885.0,1500.0,1500.0,1500.0,1500.0,1500.0,0.015,1681843473.84
987,-62.0,56.0,460.0,66.0,256.0,-508.0,0.0,0.0,0.0,0.015,1681843473.92
988,-25.0,44.0,503.0,172.0,163.0,-444.0,0.0,0.0,0.0,0.015,1681843474.00
989,3.0,34.0,491.0,344.0,147.0,-340.0,0.0,0.0,0.0,0.015,1681843474.08
990,-28.0,52.0,506.0,102.0,-86.0,-438.0,0.0,0.0,0.0,0.015,1681843474.16
991,-42.0,61.0,513.0,59.0,-32.0,-547.0,0.0,0.0,0.0,0.015,1681843474.24
992,-23.0,56.0,487.0,219.0,-54.0,-680.0,0.0,0.0,0.0,0.016,1681843474.32
993,-49.0,72.0,470.0,234.0,153.0,-855.0,0.0,0.0,0.0,0.016,1681843474.40
994,-11.0,67.0,407.0,246.0,19.0,-523.0,0.0,0.0,0.0,0.016,1681843474.48
995,-104.0,97.0,535.0,571.0,294.0,-562.0,0.0,0.0,0.0,0.016,1681843474.56
996,-29.0,95.0,500.0,328.0,436.0,-205.0,0.0,0.0,0.0,0.016,1681843474.64
997,-120.0,141.0,499.0,0.0,593.0,-405.0,0.0,0.0,0.0,0.016,1681843474.72
998,-81.0,108.0,468.0,-424.0,-105.0,-291.0,0.0,0.0,0.0,0.016,1681843474.80
999,-109.0,59.0,364.0,-1671.0,-28.0,-201.0,0.0,0.0,0.0,0.016,1681843474.88
1000,-77.0,-2.0,425.0,-82.0,-1437.0,-50.0,0.0,0.0,0.0,0.016,1681843474.96
1001,-37.0,42.0,586.0,443.0,-1708.0,-861.0,0.0,0.0,0.0,0.016,1681843475.04
1002,82.0,95.0,570.0,-924.0,-280.0,-107.0,0.0,0.0,0.0,0.016,1681843475.12
1003,186.0,-86.0,410.0,113.0,-1964.0,-939.0,0.0,0.0,0.0,0.016,1681843475.20
1004,136.0,128.0,459.0,1278.0,-2772.0,-687.0,0.0,0.0,0.0,0.016,1681843475.28
1005,323.0,72.0,368.0,53.0,-1364.0,-432.0,0.0,0.0,0.0,0.016,1681843475.36
1006,347.0,82.0,370.0,-35.0,-393.0,-64.0,0.0,0.0,0.0,0.016,1681843475.44
1007,384.0,26.0,427.0,1087.0,3124.0,201.0,0.0,0.0,0.0,0.016,1681843475.52
1008,307.0,69.0,258.0,-59.0,46.0,-400.0,0.0,0.0,0.0,0.016,1681843475.60
1009,251.0,85.0,507.0,-449.0,2524.0,-380.0,0.0,0.0,0.0,0.016,1681843475.68
1010,-121.0,29.0,391.0,-848.0,-954.0,-83.0,0.0,0.0,0.0,0.016,1681843475.76
1011,213.0,-23.0,416.0,-74.0,574.0,-575.0,0.0,0.0,0.0,0.016,1681843475.84
1012,239.0,28.0,411.0,-293.0,-813.0,-798.0,0.0,0.0,0.0,0.016,1681843475.92
1013,337.0,44.0,394.0,-1114.0,-608.0,-2010.0,0.0,0.0,0.0,0.016,1681843476.00
1014,248.0,-4.0,451.0,-856.0,89.0,-797.0,0.0,0.0,0.0,0.016,1681843476.08
1015,279.0,-4.0,469.0,-641.0,1631.0,253.0,0.0,0.0,0.0,0.016,1681843476.16
1016,183.0,-36.0,492.0,106.0,530.0,46.0,0.0,0.0,0.0,0.016,1681843476.24
1017,49.0,-133.0,537.0,-60.0,2077.0,1176.0,0.0,0.0,0.0,0.016,1681843476.32
1018,42.0,-49.0,465.0,56.0,-201.0,340.0,0.0,0.0,0.0,0.016,1681843476.40
1019,101.0,-66.0,470.0,350.0,534.0,436.0,0.0,0.0,0.0,0.016,1681843476.48
1020,58.0,-54.0,484.0,-769.0,-821.0,344.0,0.0,0.0,0.0,0.016,1681843476.56
1021,129.0,-84.0,493.0,78.0,-202.0,-6.0,0.0,0.0,0.0,0.016,1681843476.64
1022,48.0,-97.0,458.0,-11.0,-215.0,599.0,0.0,0.0,0.0,0.016,1681843476.72
1023,1500.0,1500.0,1500.0,885.0,1500.0,1500.0,1500.0,1500.0,1500.0,0.015,1681843476.78
1024,86.0,-109.0,464.0,243.0,-487.0,-98.0,0.0,0.0,0.0,0.016,1681843476.86
1025,121.0,-103.0,431.0,313.0,491.0,1485.0,0.0,0.0,0.0,0.016,1681843476.94
1026,101.0,-98.0,467.0,137.0,-309.0,92.0,0.0,0.0,0.0,0.016,1681843477.02
1027,111.0,-100.0,465.0,32.0,-28.0,-29.0,0.0,0.0,0.0,0.015,1681843477.10
1028,114.0,-101.0,466.0,29.0,-4.0,-29.0,0.0,0.0,0.0,0.015,1681843477.18
1029,113.0,-100.0,467.0,19.0,10.0,-19.0,0.0,0.0,0.0,0.015,1681843477.26
1030,113.0,-101.0,467.0,8.0,9.0,-27.0,0.0,0.0,0.0,0.015,1681843477.34
1031,111.0,-98.0,469.0,6.0,15.0,-21.0,0.0,0.0,0.0,0.015,1681843477.42
1032,111.0,-98.0,471.0,-1.0,31.0,-19.0,0.0,0.0,0.0,0.015,1681843477.50
1033,112.0,-99.0,468.0,10.0,22.0,-19.0,0.0,0.0,0.0,0.015,1681843477.58
1034,112.0,-100.0,468.0,6.0,14.0,-21.0,0.0,0.0,0.0,0.015,1681843477.66
1035,112.0,-100.0,469.0,6.0,19.0,-23.0,0.0,0.0,0.0,0.015,1681843477.74
1036,112.0,-99.0,468.0,4.0,15.0,-24.0,0.0,0.0,0.0,0.015,1681843477.82
1037,113.0,-100.0,468.0,7.0,24.0,-20.0,0.0,0.0,0.0,0.015,1681843477.90
1038,112.0,-100.0,468.0,11.0,16.0,-26.0,0.0,0.0,0.0,0.015,1681843477.98
1039,111.0,-100.0,468.0,7.0,21.0,-23.0,0.0,0.0,0.0,0.015,1681843478.06
1040,111.0,-99.0,470.0,10.0,18.0,-26.0,0.0,0.0,0.0,0.015,1681843478.14
1041,112.0,-99.0,470.0,4.0,22.0,-21.0,0.0,0.0,0.0,0.015,1681843478.22
1042,1500.0,1500.0,1500.0,885.0,1500.0,1500.0,1500.0,1500.0,1500.0,0.014,1681843478.29
1043,110.0,-98.0,469.0,7.0,11.0,-25.0,0.0,0.0,0.0,0.015,1681843478.37
1044,110.0,-99.0,470.0,8.0,20.0,-23.0,0.0,0.0,0.0,0.015,1681843478.45
1045,111.0,-101.0,469.0,6.0,15.0,-23.0,0.0,0.0,0.0,0.015,1681843478.53
1046,111.0,-100.0,469.0,7.0,13.0,-20.0,0.0,0.0,0.0,0.015,1681843478.61
1047,110.0,-100.0,469.0,8.0,18.0,-23.0,0.0,0.0,0.0,0.015,1681843478.69
1048,110.0,-101.0,470.0,6.0,19.0,-25.0,0.0,0.0,0.0,0.015,1681843478.77
1049,111.0,-102.0,469.0,4.0,18.0,-23.0,0.0,0.0,0.0,0.015,1681843478.85
1050,111.0,-100.0,468.0,7.0,15.0,-25.0,0.0,0.0,0.0,0.016,1681843478.93
1051,109.0,-100.0,469.0,11.0,22.0,-26.0,0.0,0.0,0.0,0.016,1681843479.01
1052,110.0,-100.0,470.0,10.0,15.0,-26.0,0.0,0.0,0.0,0.015,1681843479.09
1053,110.0,-101.0,469.0,4.0,13.0,-23.0,0.0,0.0,0.0,0.015,1681843479.17
1054,109.0,-101.0,470.0,6.0,14.0,-23.0,0.0,0.0,0.0,0.016,1681843479.25
1055,109.0,-99.0,470.0,9.0,17.0,-25.0,0.0,0.0,0.0,0.016,1681843479.33
1056,109.0,-101.0,468.0,7.0,17.0,-27.0,0.0,0.0,0.0,0.016,1681843479.41
1057,109.0,-99.0,469.0,8.0,16.0,-26.0,0.0,0.0,0.0,0.016,1681843479.49
1058,109.0,-99.0,469.0,4.0,13.0,-23.0,0.0,0.0,0.0,0.016,1681843479.57
1059,109.0,-100.0,470.0,5.0,19.0,-26.0,0.0,0.0,0.0,0.016,1681843479.65
1060,110.0,-101.0,469.0,10.0,19.0,-25.0,0.0,0.0,0.0,0.016,1681843479.73
1061,109.0,-100.0,468.0,9.0,17.0,-24.0,0.0,0.0,0.0,0.016,1681843479.81
1062,110.0,-100.0,468.0,4.0,13.0,-23.0,0.0,0.0,0.0,0.015,1681843479.88
1063,109.0,-100.0,469.0,4.0,12.0,-23.0,0.0,0.0,0.0,0.015,1681843479.96
1064,110.0,-101.0,469.0,9.0,14.0,-25.0,0.0,0.0,0.0,0.015,1681843480.04
1065,109.0,-100.0,468.0,8.0,14.0,-21.0,0.0,0.0,0.0,0.015,1681843480.13
1066,109.0,-101.0,470.0,8.0,14.0,-25.0,0.0,0.0,0.0,0.015,1681843480.20
1067,107.0,-101.0,469.0,4.0,14.0,-24.0,0.0,0.0,0.0,0.015,1681843480.28
1068,108.0,-101.0,469.0,7.0,16.0,-27.0,0.0,0.0,0.0,0.015,1681843480.36
1069,109.0,-101.0,470.0,5.0,16.0,-25.0,0.0,0.0,0.0,0.015,1681843480.44
1070,107.0,-100.0,469.0,8.0,22.0,-24.0,0.0,0.0,0.0,0.015,1681843480.52
1071,108.0,-101.0,467.0,8.0,17.0,-28.0,0.0,0.0,0.0,0.015,1681843480.60
1072,108.0,-102.0,469.0,8.0,19.0,-24.0,0.0,0.0,0.0,0.015,1681843480.68
1073,108.0,-101.0,470.0,6.0,16.0,-26.0,0.0,0.0,0.0,0.015,1681843480.76
1074,108.0,-101.0,468.0,5.0,13.0,-23.0,0.0,0.0,0.0,0.015,1681843480.84
1075,109.0,-102.0,470.0,9.0,17.0,-27.0,0.0,0.0,0.0,0.015,1681843480.92
1076,108.0,-103.0,468.0,9.0,20.0,-27.0,0.0,0.0,0.0,0.015,1681843481.00
1077,108.0,-101.0,470.0,4.0,16.0,-27.0,0.0,0.0,0.0,0.015,1681843481.08
1078,107.0,-101.0,469.0,8.0,15.0,-28.0,0.0,0.0,0.0,0.015,1681843481.16
1079,108.0,-102.0,469.0,8.0,20.0,-26.0,0.0,0.0,0.0,0.015,1681843481.24
1080,,,,,,,,,,,
1081,,,,,,,,,,,
1082,,,,,,,,,,,
1083,1500.0,1500.0,1500.0,885.0,1500.0,1500.0,1500.0,1500.0,1500.0,0.015,1681843481.37
1084,,,,,,,,,,,
1085,109.0,-101.0,470.0,6.0,17.0,-23.0,0.0,0.0,0.0,0.015,1681843481.53
1086,,,,,,,,,,,
1087,108.0,-102.0,470.0,9.0,16.0,-24.0,0.0,0.0,0.0,0.015,1681843481.69
1088,108.0,-102.0,469.0,12.0,19.0,-26.0,0.0,0.0,0.0,0.015,1681843481.77
1089,106.0,-99.0,467.0,8.0,18.0,-31.0,0.0,0.0,0.0,0.015,1681843481.85
1090,107.0,-102.0,470.0,5.0,13.0,-22.0,0.0,0.0,0.0,0.015,1681843481.93
1091,108.0,-102.0,469.0,9.0,11.0,-26.0,0.0,0.0,0.0,0.015,1681843482.01
1092,108.0,-101.0,467.0,8.0,23.0,-26.0,0.0,0.0,0.0,0.015,1681843482.09
1093,107.0,-101.0,468.0,9.0,13.0,-26.0,0.0,0.0,0.0,0.015,1681843482.17
1094,106.0,-100.0,469.0,7.0,16.0,-25.0,0.0,0.0,0.0,0.015,1681843482.25
1095,107.0,-101.0,467.0,5.0,14.0,-24.0,0.0,0.0,0.0,0.015,1681843482.33
1096,108.0,-102.0,469.0,7.0,16.0,-25.0,0.0,0.0,0.0,0.015,1681843482.41
1097,108.0,-102.0,469.0,11.0,16.0,-26.0,0.0,0.0,0.0,0.015,1681843482.49
1098,107.0,-101.0,471.0,17.0,26.0,-28.0,0.0,0.0,0.0,0.015,1681843482.57
1099,,,,,,,,,,,
1100,,,,,,,,,,,
1101,1500.0,1500.0,1500.0,885.0,1500.0,1500.0,1500.0,1500.0,1500.0,0.015,1681843482.75
1102,108.0,-102.0,470.0,6.0,13.0,-22.0,0.0,0.0,0.0,0.015,1681843482.83
1103,107.0,-101.0,469.0,10.0,16.0,-27.0,0.0,0.0,0.0,0.015,1681843482.91
1104,107.0,-102.0,469.0,9.0,17.0,-26.0,0.0,0.0,0.0,0.015,1681843482.99
1105,108.0,-101.0,468.0,7.0,14.0,-28.0,0.0,0.0,0.0,0.015,1681843483.07
1106,107.0,-102.0,468.0,8.0,15.0,-27.0,0.0,0.0,0.0,0.015,1681843483.15
1107,107.0,-102.0,469.0,9.0,24.0,-28.0,0.0,0.0,0.0,0.015,1681843483.23
1108,106.0,-101.0,468.0,15.0,17.0,-29.0,0.0,0.0,0.0,0.015,1681843483.31
1109,107.0,-102.0,468.0,9.0,17.0,-28.0,0.0,0.0,0.0,0.015,1681843483.39
1110,106.0,-102.0,469.0,7.0,13.0,-28.0,0.0,0.0,0.0,0.015,1681843483.47
1111,107.0,-100.0,470.0,5.0,16.0,-24.0,0.0,0.0,0.0,0.015,1681843483.55
1112,107.0,-103.0,469.0,9.0,13.0,-27.0,0.0,0.0,0.0,0.015,1681843483.63
1113,106.0,-102.0,469.0,8.0,14.0,-27.0,0.0,0.0,0.0,0.015,1681843483.71
1114,106.0,-101.0,469.0,8.0,19.0,-27.0,0.0,0.0,0.0,0.015,1681843483.79
1115,107.0,-101.0,468.0,4.0,15.0,-26.0,0.0,0.0,0.0,0.015,1681843483.87
1116,107.0,-102.0,468.0,7.0,14.0,-23.0,0.0,0.0,0.0,0.015,1681843483.95
1117,107.0,-101.0,468.0,10.0,19.0,-28.0,0.0,0.0,0.0,0.015,1681843484.03
1118,,,,,,,,,,,
1119,,,,,,,,,,,
1120,107.0,-103.0,468.0,9.0,16.0,-27.0,0.0,0.0,0.0,0.015,1681843484.17
1121,,,,,,,,,,,
1122,107.0,-101.0,470.0,7.0,14.0,-25.0,0.0,0.0,0.0,0.015,1681843484.33
1123,106.0,-101.0,470.0,12.0,19.0,-26.0,0.0,0.0,0.0,0.015,1681843484.41
1124,106.0,-102.0,469.0,10.0,14.0,-26.0,0.0,0.0,0.0,0.015,1681843484.49
1125,107.0,-103.0,469.0,4.0,12.0,-23.0,0.0,0.0,0.0,0.015,1681843484.57
1126,106.0,-102.0,471.0,2.0,8.0,-26.0,0.0,0.0,0.0,0.015,1681843484.65
1127,106.0,-101.0,469.0,5.0,14.0,-24.0,0.0,0.0,0.0,0.015,1681843484.73
1128,106.0,-103.0,467.0,10.0,13.0,-30.0,0.0,0.0,0.0,0.015,1681843484.81
1129,106.0,-103.0,469.0,8.0,15.0,-27.0,0.0,0.0,0.0,0.015,1681843484.89
1130,106.0,-102.0,470.0,6.0,17.0,-29.0,0.0,0.0,0.0,0.015,1681843484.97
1131,106.0,-103.0,470.0,4.0,17.0,-28.0,0.0,0.0,0.0,0.015,1681843485.05
1132,107.0,-102.0,468.0,8.0,15.0,-27.0,0.0,0.0,0.0,0.015,1681843485.13
1133,107.0,-102.0,469.0,8.0,18.0,-26.0,0.0,0.0,0.0,0.015,1681843485.21
1134,106.0,-102.0,468.0,9.0,17.0,-27.0,0.0,0.0,0.0,0.015,1681843485.29
1135,107.0,-102.0,471.0,6.0,12.0,-23.0,0.0,0.0,0.0,0.015,1681843485.37
1136,107.0,-102.0,470.0,6.0,15.0,-23.0,0.0,0.0,0.0,0.015,1681843485.45
1137,,,,,,,,,,,
1138,106.0,-102.0,469.0,5.0,14.0,-25.0,0.0,0.0,0.0,0.015,1681843485.60
1139,106.0,-103.0,469.0,7.0,21.0,-28.0,0.0,0.0,0.0,0.016,1681843485.68
1140,107.0,-102.0,469.0,7.0,19.0,-22.0,0.0,0.0,0.0,0.016,1681843485.76
1141,105.0,-101.0,470.0,8.0,13.0,-28.0,0.0,0.0,0.0,0.016,1681843485.84
1142,106.0,-102.0,471.0,7.0,14.0,-26.0,0.0,0.0,0.0,0.016,1681843485.92
1143,107.0,-104.0,470.0,8.0,16.0,-25.0,0.0,0.0,0.0,0.016,1681843486.00
1144,106.0,-102.0,470.0,11.0,20.0,-30.0,0.0,0.0,0.0,0.015,1681843486.08
1145,105.0,-101.0,469.0,11.0,14.0,-26.0,0.0,0.0,0.0,0.015,1681843486.16
1146,106.0,-102.0,468.0,13.0,17.0,-26.0,0.0,0.0,0.0,0.014,1681843486.24
1147,106.0,-103.0,469.0,6.0,18.0,-28.0,0.0,0.0,0.0,0.015,1681843486.32
1148,106.0,-102.0,469.0,8.0,10.0,-25.0,0.0,0.0,0.0,0.015,1681843486.40
1149,105.0,-101.0,470.0,7.0,13.0,-25.0,0.0,0.0,0.0,0.015,1681843486.48
1150,106.0,-101.0,470.0,12.0,18.0,-30.0,0.0,0.0,0.0,0.015,1681843486.56
1151,106.0,-102.0,469.0,6.0,11.0,-21.0,0.0,0.0,0.0,0.015,1681843486.64
1152,106.0,-102.0,469.0,9.0,16.0,-27.0,0.0,0.0,0.0,0.015,1681843486.72
1153,106.0,-102.0,471.0,3.0,16.0,-27.0,0.0,0.0,0.0,0.015,1681843486.80
1154,105.0,-102.0,468.0,11.0,17.0,-24.0,0.0,0.0,0.0,0.015,1681843486.88
1155,106.0,-102.0,467.0,9.0,17.0,-28.0,0.0,0.0,0.0,0.015,1681843486.96
1156,105.0,-102.0,469.0,8.0,17.0,-27.0,0.0,0.0,0.0,0.015,1681843487.04
1157,1500.0,1500.0,1500.0,885.0,1500.0,1500.0,1500.0,1500.0,1500.0,0.015,1681843487.10
1158,106.0,-103.0,470.0,6.0,14.0,-23.0,0.0,0.0,0.0,0.015,1681843487.18
1159,106.0,-103.0,469.0,8.0,20.0,-27.0,0.0,0.0,0.0,0.015,1681843487.26
1160,105.0,-101.0,468.0,10.0,19.0,-28.0,0.0,0.0,0.0,0.015,1681843487.34
1161,106.0,-102.0,469.0,8.0,15.0,-25.0,0.0,0.0,0.0,0.015,1681843487.42
1162,106.0,-103.0,470.0,6.0,15.0,-21.0,0.0,0.0,0.0,0.015,1681843487.50
1163,105.0,-102.0,470.0,11.0,20.0,-28.0,0.0,0.0,0.0,0.015,1681843487.58
1164,105.0,-102.0,470.0,12.0,16.0,-27.0,0.0,0.0,0.0,0.015,1681843487.66
1165,107.0,-103.0,469.0,11.0,18.0,-26.0,0.0,0.0,0.0,0.015,1681843487.74
1166,106.0,-103.0,468.0,8.0,18.0,-29.0,0.0,0.0,0.0,0.015,1681843487.82
1167,105.0,-103.0,471.0,6.0,15.0,-22.0,0.0,0.0,0.0,0.015,1681843487.90
1168,106.0,-102.0,471.0,4.0,6.0,-21.0,0.0,0.0,0.0,0.015,1681843487.98
1169,106.0,-103.0,468.0,10.0,24.0,-26.0,0.0,0.0,0.0,0.015,1681843488.06
1170,105.0,-103.0,468.0,9.0,13.0,-25.0,0.0,0.0,0.0,0.015,1681843488.14
1171,106.0,-102.0,470.0,1.0,13.0,-24.0,0.0,0.0,0.0,0.015,1681843488.22
1172,106.0,-102.0,470.0,4.0,17.0,-25.0,0.0,0.0,0.0,0.015,1681843488.30
1173,106.0,-103.0,470.0,8.0,17.0,-26.0,0.0,0.0,0.0,0.015,1681843488.38
1174,105.0,-102.0,469.0,10.0,16.0,-26.0,0.0,0.0,0.0,0.015,1681843488.46
1175,105.0,-102.0,469.0,7.0,17.0,-30.0,0.0,0.0,0.0,0.015,1681843488.54
1176,,,,,,,,,,,
1177,,,,,,,,,,,
1178,105.0,-101.0,469.0,11.0,16.0,-29.0,0.0,0.0,0.0,0.015,1681843488.73
1179,105.0,-103.0,469.0,7.0,16.0,-26.0,0.0,0.0,0.0,0.015,1681843488.81
1180,106.0,-103.0,470.0,2.0,9.0,-23.0,0.0,0.0,0.0,0.015,1681843488.89
1181,105.0,-102.0,469.0,9.0,16.0,-26.0,0.0,0.0,0.0,0.015,1681843488.97
1182,105.0,-102.0,469.0,10.0,17.0,-30.0,0.0,0.0,0.0,0.015,1681843489.05
1183,107.0,-102.0,470.0,8.0,8.0,-25.0,0.0,0.0,0.0,0.015,1681843489.13
1184,106.0,-103.0,470.0,7.0,21.0,-26.0,0.0,0.0,0.0,0.015,1681843489.21
1185,105.0,-103.0,470.0,9.0,15.0,-29.0,0.0,0.0,0.0,0.015,1681843489.29
1186,105.0,-102.0,470.0,8.0,11.0,-23.0,0.0,0.0,0.0,0.015,1681843489.37
1187,105.0,-101.0,468.0,11.0,15.0,-30.0,0.0,0.0,0.0,0.015,1681843489.45
1188,106.0,-103.0,469.0,4.0,14.0,-26.0,0.0,0.0,0.0,0.015,1681843489.53
1189,106.0,-102.0,470.0,3.0,11.0,-25.0,0.0,0.0,0.0,0.015,1681843489.61
1190,106.0,-102.0,468.0,9.0,20.0,-27.0,0.0,0.0,0.0,0.015,1681843489.69
1191,106.0,-102.0,469.0,10.0,18.0,-25.0,0.0,0.0,0.0,0.015,1681843489.77
1192,104.0,-101.0,468.0,8.0,19.0,-29.0,0.0,0.0,0.0,0.015,1681843489.85
1193,105.0,-101.0,470.0,5.0,17.0,-29.0,0.0,0.0,0.0,0.015,1681843489.93
1194,106.0,-102.0,470.0,8.0,10.0,-22.0,0.0,0.0,0.0,0.015,1681843490.01
1195,1500.0,1500.0,1500.0,885.0,1500.0,1500.0,1500.0,1500.0,1500.0,0.0,1681843490.08
1196,105.0,-102.0,470.0,5.0,20.0,-28.0,0.0,0.0,0.0,0.015,1681843490.16
1197,106.0,-102.0,469.0,8.0,13.0,-30.0,0.0,0.0,0.0,0.015,1681843490.24
1198,106.0,-103.0,470.0,10.0,15.0,-28.0,0.0,0.0,0.0,0.015,1681843490.32
1199,105.0,-103.0,469.0,12.0,17.0,-29.0,0.0,0.0,0.0,0.015,1681843490.40
1200,105.0,-102.0,470.0,7.0,12.0,-29.0,0.0,0.0,0.0,0.015,1681843490.48
1201,106.0,-103.0,470.0,4.0,16.0,-23.0,0.0,0.0,0.0,0.015,1681843490.56
1202,105.0,-104.0,468.0,6.0,12.0,-27.0,0.0,0.0,0.0,0.015,1681843490.64
1203,105.0,-102.0,468.0,8.0,14.0,-26.0,0.0,0.0,0.0,0.015,1681843490.72
1204,104.0,-102.0,469.0,7.0,15.0,-25.0,0.0,0.0,0.0,0.015,1681843490.80
1205,106.0,-102.0,470.0,10.0,20.0,-26.0,0.0,0.0,0.0,0.015,1681843490.88
1206,106.0,-104.0,469.0,7.0,13.0,-25.0,0.0,0.0,0.0,0.015,1681843490.96
1207,105.0,-102.0,470.0,9.0,11.0,-28.0,0.0,0.0,0.0,0.015,1681843491.04
1208,105.0,-101.0,470.0,10.0,20.0,-24.0,0.0,0.0,0.0,0.015,1681843491.12
1209,105.0,-102.0,470.0,11.0,20.0,-27.0,0.0,0.0,0.0,0.015,1681843491.20
1210,106.0,-103.0,469.0,7.0,15.0,-25.0,0.0,0.0,0.0,0.015,1681843491.28
1211,105.0,-103.0,471.0,6.0,17.0,-27.0,0.0,0.0,0.0,0.015,1681843491.36
1212,104.0,-103.0,469.0,10.0,13.0,-28.0,0.0,0.0,0.0,0.015,1681843491.44
1213,104.0,-103.0,469.0,10.0,16.0,-26.0,0.0,0.0,0.0,0.015,1681843491.52
1214,,,,,,,,,,,
1215,,,,,,,,,,,
1216,,,,,,,,,,,
1217,,,,,,,,,,,
1218,,,,,,,,,,,
1219,1500.0,1500.0,1500.0,885.0,1500.0,1500.0,1500.0,1500.0,1500.0,0.015,1681843491.79
1220,,,,,,,,,,,
1221,105.0,-103.0,469.0,9.0,13.0,-24.0,0.0,0.0,0.0,0.015,1681843491.95
1222,105.0,-103.0,469.0,12.0,18.0,-29.0,0.0,0.0,0.0,0.015,1681843492.03
1223,105.0,-102.0,469.0,8.0,12.0,-25.0,0.0,0.0,0.0,0.015,1681843492.11
1224,104.0,-101.0,468.0,5.0,15.0,-25.0,0.0,0.0,0.0,0.015,1681843492.19
1225,106.0,-102.0,468.0,10.0,17.0,-30.0,0.0,0.0,0.0,0.015,1681843492.27
1226,105.0,-103.0,470.0,6.0,13.0,-24.0,0.0,0.0,0.0,0.015,1681843492.35
1227,104.0,-103.0,469.0,12.0,15.0,-29.0,0.0,0.0,0.0,0.015,1681843492.43
1228,104.0,-101.0,469.0,12.0,16.0,-29.0,0.0,0.0,0.0,0.015,1681843492.51
1229,104.0,-103.0,470.0,6.0,17.0,-24.0,0.0,0.0,0.0,0.015,1681843492.59
1230,105.0,-103.0,470.0,2.0,10.0,-24.0,0.0,0.0,0.0,0.015,1681843492.67
1231,105.0,-102.0,470.0,8.0,22.0,-28.0,0.0,0.0,0.0,0.015,1681843492.75
1232,104.0,-103.0,469.0,10.0,17.0,-29.0,0.0,0.0,0.0,0.015,1681843492.83
1233,,,,,,,,,,,
1234,104.0,-103.0,469.0,8.0,19.0,-22.0,0.0,0.0,0.0,0.0,1681843492.91
1235,,,,,,,,,,,
1236,104.0,-103.0,471.0,10.0,17.0,-26.0,0.0,0.0,0.0,0.015,1681843493.07
1237,105.0,-103.0,468.0,8.0,11.0,-24.0,0.0,0.0,0.0,0.015,1681843493.15
1238,104.0,-104.0,469.0,10.0,12.0,-28.0,0.0,0.0,0.0,0.015,1681843493.23
1239,105.0,-103.0,468.0,3.0,11.0,-25.0,0.0,0.0,0.0,0.015,1681843493.31
1240,105.0,-102.0,470.0,7.0,17.0,-28.0,0.0,0.0,0.0,0.015,1681843493.39
1241,105.0,-103.0,470.0,8.0,17.0,-24.0,0.0,0.0,0.0,0.015,1681843493.47
1242,105.0,-103.0,467.0,14.0,11.0,-28.0,0.0,0.0,0.0,0.015,1681843493.55
1243,104.0,-103.0,469.0,11.0,16.0,-30.0,0.0,0.0,0.0,0.015,1681843493.63
1244,103.0,-102.0,470.0,4.0,15.0,-26.0,0.0,0.0,0.0,0.015,1681843493.71
1245,105.0,-103.0,469.0,7.0,16.0,-25.0,0.0,0.0,0.0,0.015,1681843493.79
1246,106.0,-103.0,469.0,6.0,12.0,-23.0,0.0,0.0,0.0,0.015,1681843493.87
1247,105.0,-102.0,469.0,10.0,17.0,-28.0,0.0,0.0,0.0,0.015,1681843493.95
1248,105.0,-102.0,470.0,7.0,16.0,-27.0,0.0,0.0,0.0,0.015,1681843494.03
1249,105.0,-103.0,470.0,6.0,16.0,-29.0,0.0,0.0,0.0,0.015,1681843494.11
1250,106.0,-103.0,471.0,6.0,14.0,-24.0,0.0,0.0,0.0,0.015,1681843494.19
1251,103.0,-103.0,470.0,10.0,19.0,-24.0,0.0,0.0,0.0,0.015,1681843494.27
1252,,,,,,,,,,,
1253,,,,,,,,,,,
1254,104.0,-103.0,470.0,6.0,13.0,-28.0,0.0,0.0,0.0,0.015,1681843494.41
1255,,,,,,,,,,,
1256,105.0,-102.0,470.0,8.0,12.0,-25.0,0.0,0.0,0.0,0.015,1681843494.57
1257,105.0,-104.0,468.0,10.0,10.0,-24.0,0.0,0.0,0.0,0.015,1681843494.65
1258,104.0,-103.0,469.0,10.0,10.0,-31.0,0.0,0.0,0.0,0.015,1681843494.73
1259,104.0,-101.0,468.0,9.0,16.0,-25.0,0.0,0.0,0.0,0.016,1681843494.81
1260,104.0,-102.0,471.0,5.0,11.0,-29.0,0.0,0.0,0.0,0.016,1681843494.89
1261,105.0,-102.0,470.0,6.0,15.0,-27.0,0.0,0.0,0.0,0.015,1681843494.97
1262,104.0,-103.0,469.0,12.0,14.0,-27.0,0.0,0.0,0.0,0.016,1681843495.05
1263,104.0,-102.0,468.0,9.0,19.0,-30.0,0.0,0.0,0.0,0.016,1681843495.13
1264,104.0,-103.0,470.0,4.0,13.0,-24.0,0.0,0.0,0.0,0.015,1681843495.21
1265,105.0,-103.0,470.0,7.0,16.0,-26.0,0.0,0.0,0.0,0.015,1681843495.29
1266,104.0,-102.0,469.0,5.0,16.0,-27.0,0.0,0.0,0.0,0.015,1681843495.37
1267,104.0,-102.0,469.0,10.0,17.0,-29.0,0.0,0.0,0.0,0.015,1681843495.45
1268,104.0,-103.0,469.0,10.0,18.0,-27.0,0.0,0.0,0.0,0.015,1681843495.53
1269,105.0,-103.0,469.0,9.0,17.0,-27.0,0.0,0.0,0.0,0.015,1681843495.61
1270,104.0,-103.0,470.0,5.0,14.0,-27.0,0.0,0.0,0.0,0.015,1681843495.69
1271,,,,,,,,,,,
1272,106.0,-103.0,471.0,10.0,18.0,-26.0,0.0,0.0,0.0,0.015,1681843495.84
1273,105.0,-103.0,469.0,6.0,7.0,-23.0,0.0,0.0,0.0,0.015,1681843495.92
1274,104.0,-103.0,471.0,10.0,18.0,-28.0,0.0,0.0,0.0,0.015,1681843496.00
1275,104.0,-103.0,470.0,9.0,13.0,-25.0,0.0,0.0,0.0,0.015,1681843496.08
1276,105.0,-103.0,469.0,5.0,15.0,-25.0,0.0,0.0,0.0,0.015,1681843496.16
1277,104.0,-103.0,469.0,7.0,13.0,-29.0,0.0,0.0,0.0,0.015,1681843496.24
1278,105.0,-103.0,469.0,9.0,18.0,-27.0,0.0,0.0,0.0,0.015,1681843496.32
1279,104.0,-104.0,469.0,8.0,14.0,-21.0,0.0,0.0,0.0,0.015,1681843496.40
1280,104.0,-102.0,469.0,11.0,19.0,-25.0,0.0,0.0,0.0,0.015,1681843496.48
1281,105.0,-104.0,471.0,2.0,11.0,-25.0,0.0,0.0,0.0,0.015,1681843496.56
1282,104.0,-103.0,470.0,4.0,9.0,-23.0,0.0,0.0,0.0,0.015,1681843496.64
1283,105.0,-102.0,470.0,6.0,21.0,-27.0,0.0,0.0,0.0,0.015,1681843496.72
1284,104.0,-103.0,469.0,10.0,17.0,-30.0,0.0,0.0,0.0,0.015,1681843496.80
1285,104.0,-103.0,469.0,12.0,16.0,-27.0,0.0,0.0,0.0,0.015,1681843496.88
1286,104.0,-102.0,470.0,3.0,14.0,-29.0,0.0,0.0,0.0,0.015,1681843496.96
1287,105.0,-103.0,470.0,6.0,21.0,-24.0,0.0,0.0,0.0,0.015,1681843497.04
1288,106.0,-104.0,469.0,6.0,14.0,-25.0,0.0,0.0,0.0,0.015,1681843497.12
1289,104.0,-103.0,469.0,8.0,16.0,-24.0,0.0,0.0,0.0,0.015,1681843497.20
1290,105.0,-102.0,469.0,5.0,13.0,-23.0,0.0,0.0,0.0,0.015,1681843497.28
1291,105.0,-102.0,468.0,8.0,18.0,-28.0,0.0,0.0,0.0,0.015,1681843497.34
1292,105.0,-103.0,470.0,7.0,12.0,-26.0,0.0,0.0,0.0,0.015,1681843497.42
1293,105.0,-102.0,470.0,6.0,18.0,-26.0,0.0,0.0,0.0,0.015,1681843497.50
1294,103.0,-103.0,469.0,6.0,19.0,-29.0,0.0,0.0,0.0,0.015,1681843497.58
1295,104.0,-103.0,468.0,6.0,15.0,-27.0,0.0,0.0,0.0,0.015,1681843497.66
1296,104.0,-103.0,469.0,6.0,14.0,-23.0,0.0,0.0,0.0,0.015,1681843497.74
1297,103.0,-102.0,471.0,3.0,19.0,-27.0,0.0,0.0,0.0,0.015,1681843497.82
1298,104.0,-104.0,468.0,11.0,17.0,-28.0,0.0,0.0,0.0,0.015,1681843497.90
1299,105.0,-103.0,469.0,10.0,17.0,-23.0,0.0,0.0,0.0,0.015,1681843497.98
1300,104.0,-103.0,470.0,10.0,15.0,-29.0,0.0,0.0,0.0,0.015,1681843498.06
1301,104.0,-102.0,469.0,4.0,15.0,-24.0,0.0,0.0,0.0,0.015,1681843498.14
1302,104.0,-103.0,470.0,7.0,13.0,-27.0,0.0,0.0,0.0,0.015,1681843498.22
1303,104.0,-103.0,468.0,10.0,17.0,-27.0,0.0,0.0,0.0,0.015,1681843498.30
1304,104.0,-102.0,468.0,9.0,13.0,-26.0,0.0,0.0,0.0,0.015,1681843498.38
1305,104.0,-102.0,471.0,6.0,14.0,-25.0,0.0,0.0,0.0,0.015,1681843498.46
1306,104.0,-102.0,470.0,6.0,19.0,-27.0,0.0,0.0,0.0,0.015,1681843498.54
1307,105.0,-103.0,470.0,7.0,9.0,-24.0,0.0,0.0,0.0,0.015,1681843498.62
1308,104.0,-102.0,469.0,11.0,19.0,-28.0,0.0,0.0,0.0,0.015,1681843498.70
1309,103.0,-104.0,470.0,10.0,15.0,-30.0,0.0,0.0,0.0,0.015,1681843498.78
1310,,,,,,,,,,,
1311,,,,,,,,,,,
1312,105.0,-104.0,469.0,6.0,10.0,-25.0,0.0,0.0,0.0,0.015,1681843498.96
1313,105.0,-103.0,469.0,7.0,14.0,-25.0,0.0,0.0,0.0,0.015,1681843499.04
1314,103.0,-102.0,469.0,12.0,20.0,-29.0,0.0,0.0,0.0,0.015,1681843499.12
1315,104.0,-103.0,469.0,10.0,16.0,-27.0,0.0,0.0,0.0,0.015,1681843499.20
1316,105.0,-103.0,470.0,3.0,13.0,-25.0,0.0,0.0,0.0,0.015,1681843499.28
1317,104.0,-102.0,470.0,5.0,16.0,-30.0,0.0,0.0,0.0,0.015,1681843499.36
1318,104.0,-103.0,469.0,8.0,16.0,-24.0,0.0,0.0,0.0,0.015,1681843499.44
1319,104.0,-102.0,469.0,10.0,15.0,-26.0,0.0,0.0,0.0,0.015,1681843499.52
1320,105.0,-103.0,470.0,4.0,12.0,-25.0,0.0,0.0,0.0,0.015,1681843499.60
1321,104.0,-103.0,471.0,1.0,14.0,-22.0,0.0,0.0,0.0,0.015,1681843499.68
1322,104.0,-103.0,470.0,6.0,20.0,-24.0,0.0,0.0,0.0,0.015,1681843499.76
1323,104.0,-103.0,469.0,7.0,16.0,-25.0,0.0,0.0,0.0,0.015,1681843499.84
1324,104.0,-103.0,469.0,8.0,12.0,-26.0,0.0,0.0,0.0,0.015,1681843499.92
1325,104.0,-101.0,471.0,9.0,13.0,-28.0,0.0,0.0,0.0,0.015,1681843500.00
1326,104.0,-103.0,470.0,5.0,14.0,-26.0,0.0,0.0,0.0,0.015,1681843500.08
1327,105.0,-103.0,469.0,10.0,10.0,-23.0,0.0,0.0,0.0,0.015,1681843500.16
1328,103.0,-104.0,469.0,11.0,23.0,-28.0,0.0,0.0,0.0,0.015,1681843500.24
1329,,,,,,,,,,,
1330,,,,,,,,,,,
1331,104.0,-102.0,470.0,-3.0,14.0,-25.0,0.0,0.0,0.0,0.015,1681843500.43
1332,104.0,-103.0,471.0,4.0,17.0,-31.0,0.0,0.0,0.0,0.015,1681843500.51
1333,104.0,-103.0,470.0,6.0,15.0,-25.0,0.0,0.0,0.0,0.015,1681843500.59
1334,105.0,-104.0,470.0,5.0,12.0,-24.0,0.0,0.0,0.0,0.015,1681843500.67
1335,103.0,-102.0,470.0,7.0,16.0,-27.0,0.0,0.0,0.0,0.015,1681843500.75
1336,103.0,-102.0,469.0,9.0,15.0,-27.0,0.0,0.0,0.0,0.015,1681843500.83
1337,103.0,-101.0,468.0,21.0,19.0,-26.0,0.0,0.0,0.0,0.015,1681843500.91
1338,104.0,-102.0,470.0,7.0,10.0,-25.0,0.0,0.0,0.0,0.015,1681843500.99
1339,104.0,-103.0,469.0,4.0,12.0,-21.0,0.0,0.0,0.0,0.015,1681843501.07
1340,104.0,-104.0,470.0,8.0,14.0,-24.0,0.0,0.0,0.0,0.015,1681843501.15
1341,104.0,-102.0,469.0,11.0,20.0,-32.0,0.0,0.0,0.0,0.015,1681843501.23
1342,104.0,-103.0,470.0,5.0,13.0,-26.0,0.0,0.0,0.0,0.015,1681843501.31
1343,104.0,-103.0,470.0,6.0,13.0,-29.0,0.0,0.0,0.0,0.015,1681843501.39
1344,104.0,-104.0,467.0,-12.0,-35.0,-25.0,0.0,0.0,0.0,0.015,1681843501.47
1345,99.0,-104.0,471.0,9.0,-40.0,-47.0,0.0,0.0,0.0,0.015,1681843501.55
1346,101.0,-99.0,464.0,-26.0,-5.0,-24.0,0.0,0.0,0.0,0.015,1681843501.63
1347,107.0,-111.0,470.0,-3.0,-10.0,-29.0,0.0,0.0,0.0,0.015,1681843501.71
1348,,,,,,,,,,,
1349,,,,,,,,,,,
1350,,,,,,,,,,,
1351,,,,,,,,,,,
1352,,,,,,,,,,,
1353,1500.0,1500.0,1500.0,885.0,1500.0,1500.0,1500.0,1500.0,1500.0,0.015,1681843501.98
1354,,,,,,,,,,,
1355,328.0,-261.0,474.0,-451.0,2252.0,715.0,0.0,0.0,0.0,0.015,1681843502.14
1356,56.0,20.0,523.0,149.0,-2281.0,-1463.0,0.0,0.0,0.0,0.015,1681843502.22
1357,383.0,44.0,266.0,2496.0,-6815.0,291.0,0.0,0.0,0.0,0.015,1681843502.30
1358,483.0,89.0,370.0,-1744.0,9040.0,-2063.0,0.0,0.0,0.0,0.015,1681843502.38
1359,566.0,67.0,107.0,-195.0,3989.0,1035.0,0.0,0.0,0.0,0.015,1681843502.46
1360,442.0,25.0,363.0,-68.0,3759.0,995.0,0.0,0.0,0.0,0.015,1681843502.54
1361,341.0,-16.0,409.0,-1704.0,4824.0,399.0,0.0,0.0,0.0,0.015,1681843502.62
1362,82.0,-54.0,401.0,200.0,6187.0,1220.0,0.0,0.0,0.0,0.015,1681843502.70
1363,-86.0,-116.0,592.0,-650.0,3629.0,159.0,0.0,0.0,0.0,0.015,1681843502.78
1364,-158.0,-91.0,443.0,-347.0,1449.0,827.0,0.0,0.0,0.0,0.015,1681843502.86
1365,-206.0,-118.0,308.0,235.0,1055.0,1177.0,0.0,0.0,0.0,0.015,1681843502.94
1366,-434.0,-107.0,389.0,-23.0,-633.0,-77.0,0.0,0.0,0.0,0.015,1681843503.02
1367,,,,,,,,,,,
1368,,,,,,,,,,,
1369,-261.0,-94.0,347.0,5.0,238.0,858.0,0.0,0.0,0.0,0.015,1681843503.17
1370,,,,,,,,,,,
1371,-333.0,-67.0,375.0,-649.0,-568.0,346.0,0.0,0.0,0.0,0.015,1681843503.33
1372,-289.0,-56.0,380.0,-750.0,-1380.0,46.0,0.0,0.0,0.0,0.015,1681843503.41
1373,-259.0,19.0,335.0,944.0,-989.0,244.0,0.0,0.0,0.0,0.015,1681843503.49
1374,-245.0,-117.0,384.0,-301.0,-782.0,626.0,0.0,0.0,0.0,0.015,1681843503.57
1375,-121.0,-104.0,517.0,356.0,-1573.0,640.0,0.0,0.0,0.0,0.015,1681843503.65
1376,73.0,-108.0,530.0,456.0,-2536.0,-339.0,0.0,0.0,0.0,0.015,1681843503.73
1377,-28.0,-55.0,506.0,-476.0,868.0,293.0,0.0,0.0,0.0,0.015,1681843503.81
1378,54.0,-84.0,441.0,-330.0,735.0,273.0,0.0,0.0,0.0,0.015,1681843503.89
1379,-48.0,-109.0,467.0,-79.0,409.0,511.0,0.0,0.0,0.0,0.015,1681843503.97
1380,-106.0,-86.0,473.0,-140.0,-241.0,553.0,0.0,0.0,0.0,0.015,1681843504.05
1381,-126.0,-93.0,464.0,422.0,-254.0,92.0,0.0,0.0,0.0,0.015,1681843504.13
1382,-95.0,-87.0,482.0,404.0,-343.0,162.0,0.0,0.0,0.0,0.015,1681843504.21
1383,-35.0,-85.0,492.0,629.0,-345.0,113.0,0.0,0.0,0.0,0.015,1681843504.29
1384,30.0,-76.0,541.0,-71.0,-301.0,-109.0,0.0,0.0,0.0,0.015,1681843504.37
1385,-15.0,31.0,477.0,-210.0,-979.0,-289.0,0.0,0.0,0.0,0.015,1681843504.45
1386,,,,,,,,,,,
1387,,,,,,,,,,,
1388,,,,,,,,,,,
1389,35.0,-58.0,534.0,246.0,542.0,430.0,0.0,0.0,0.0,0.014,1681843504.64
1390,,,,,,,,,,,
1391,16.0,-33.0,430.0,109.0,82.0,118.0,0.0,0.0,0.0,0.015,1681843504.80
1392,116.0,-37.0,517.0,70.0,18.0,196.0,0.0,0.0,0.0,0.015,1681843504.88
1393,-11.0,-10.0,483.0,-109.0,282.0,209.0,0.0,0.0,0.0,0.015,1681843504.96
1394,-23.0,-56.0,388.0,423.0,-400.0,-154.0,0.0,0.0,0.0,0.015,1681843505.04
1395,200.0,-71.0,489.0,505.0,-1226.0,30.0,0.0,0.0,0.0,0.015,1681843505.12
1396,59.0,3.0,577.0,296.0,-828.0,313.0,0.0,0.0,0.0,0.015,1681843505.20
1397,87.0,7.0,509.0,-57.0,135.0,281.0,0.0,0.0,0.0,0.015,1681843505.28
1398,96.0,-6.0,481.0,-40.0,60.0,190.0,0.0,0.0,0.0,0.015,1681843505.36
1399,44.0,16.0,498.0,89.0,104.0,69.0,0.0,0.0,0.0,0.015,1681843505.44
1400,140.0,-9.0,493.0,151.0,568.0,50.0,0.0,0.0,0.0,0.015,1681843505.52
1401,101.0,27.0,466.0,-146.0,-20.0,30.0,0.0,0.0,0.0,0.015,1681843505.60
1402,117.0,9.0,458.0,18.0,3.0,-29.0,0.0,0.0,0.0,0.015,1681843505.68
1403,71.0,-20.0,533.0,401.0,183.0,72.0,0.0,0.0,0.0,0.015,1681843505.76
1404,138.0,-15.0,557.0,-140.0,139.0,-28.0,0.0,0.0,0.0,0.015,1681843505.84
1405,,,,,,,,,,,
1406,71.0,36.0,476.0,-201.0,28.0,-200.0,0.0,0.0,0.0,0.015,1681843506.00
1407,-4.0,14.0,450.0,-151.0,39.0,-517.0,0.0,0.0,0.0,0.015,1681843506.08
1408,59.0,-18.0,434.0,-98.0,268.0,-720.0,0.0,0.0,0.0,0.015,1681843506.16
1409,169.0,0.0,547.0,93.0,-1090.0,-759.0,0.0,0.0,0.0,0.015,1681843506.24
1410,-11.0,16.0,461.0,-410.0,75.0,-155.0,0.0,0.0,0.0,0.015,1681843506.32
1411,98.0,-19.0,467.0,129.0,487.0,-176.0,0.0,0.0,0.0,0.015,1681843506.40
1412,19.0,-5.0,461.0,141.0,46.0,-517.0,0.0,0.0,0.0,0.015,1681843506.48
1413,188.0,-30.0,475.0,126.0,-175.0,-580.0,0.0,0.0,0.0,0.015,1681843506.56
1414,112.0,9.0,494.0,-8.0,125.0,-370.0,0.0,0.0,0.0,0.015,1681843506.64
1415,67.0,23.0,469.0,3.0,65.0,-326.0,0.0,0.0,0.0,0.015,1681843506.72
1416,109.0,-2.0,472.0,129.0,240.0,-204.0,0.0,0.0,0.0,0.015,1681843506.80
1417,75.0,-6.0,521.0,14.0,-121.0,-445.0,0.0,0.0,0.0,0.015,1681843506.88
1418,70.0,12.0,511.0,54.0,14.0,-410.0,0.0,0.0,0.0,0.015,1681843506.96
1419,109.0,6.0,467.0,36.0,6.0,-296.0,0.0,0.0,0.0,0.016,1681843507.04
1420,78.0,25.0,461.0,82.0,86.0,-305.0,0.0,0.0,0.0,0.015,1681843507.12
1421,83.0,39.0,466.0,163.0,40.0,-331.0,0.0,0.0,0.0,0.015,1681843507.20
1422,100.0,36.0,480.0,-102.0,139.0,-281.0,0.0,0.0,0.0,0.015,1681843507.28
1423,84.0,34.0,453.0,-290.0,-77.0,-350.0,0.0,0.0,0.0,0.015,1681843507.36
1424,102.0,30.0,474.0,315.0,251.0,-163.0,0.0,0.0,0.0,0.015,1681843507.44
1425,1500.0,1500.0,1500.0,885.0,1500.0,1500.0,1500.0,1500.0,1500.0,0.014,1681843507.50
1426,97.0,40.0,515.0,155.0,329.0,-177.0,0.0,0.0,0.0,0.015,1681843507.58
1427,92.0,41.0,521.0,122.0,112.0,-138.0,0.0,0.0,0.0,0.015,1681843507.66
1428,91.0,64.0,483.0,8.0,-111.0,-161.0,0.0,0.0,0.0,0.015,1681843507.74
1429,91.0,67.0,481.0,-310.0,-36.0,-136.0,0.0,0.0,0.0,0.015,1681843507.82
1430,78.0,49.0,504.0,-164.0,51.0,-73.0,0.0,0.0,0.0,0.016,1681843507.90
1431,55.0,34.0,481.0,-135.0,116.0,-42.0,0.0,0.0,0.0,0.015,1681843507.98
1432,67.0,20.0,481.0,-57.0,12.0,-87.0,0.0,0.0,0.0,0.015,1681843508.06
1433,78.0,18.0,532.0,-38.0,178.0,9.0,0.0,0.0,0.0,0.015,1681843508.14
1434,32.0,7.0,597.0,-157.0,440.0,57.0,0.0,0.0,0.0,0.015,1681843508.22
1435,123.0,3.0,577.0,-520.0,-854.0,198.0,0.0,0.0,0.0,0.015,1681843508.30
1436,143.0,10.0,629.0,-715.0,-69.0,720.0,0.0,0.0,0.0,0.015,1681843508.38
1437,12.0,31.0,575.0,-1932.0,2139.0,217.0,0.0,0.0,0.0,0.015,1681843508.46
1438,-164.0,-123.0,461.0,-1209.0,402.0,-871.0,0.0,0.0,0.0,0.015,1681843508.54
1439,-149.0,-114.0,490.0,-1318.0,-225.0,-1485.0,0.0,0.0,0.0,0.015,1681843508.62
1440,-22.0,-223.0,335.0,538.0,-367.0,-1448.0,0.0,0.0,0.0,0.015,1681843508.70
1441,22.0,-165.0,445.0,-1327.0,180.0,-2650.0,0.0,0.0,0.0,0.015,1681843508.78
1442,17.0,-232.0,403.0,-1806.0,1002.0,-2498.0,0.0,0.0,0.0,0.015,1681843508.86
1443,-7.0,-343.0,315.0,-54.0,-203.0,-1425.0,0.0,0.0,0.0,0.015,1681843508.94
1444,,,,,,,,,,,
1445,,,,,,,,,,,
1446,171.0,-286.0,310.0,-191.0,-576.0,-623.0,0.0,0.0,0.0,0.015,1681843509.12
1447,205.0,-334.0,307.0,-1101.0,-757.0,415.0,0.0,0.0,0.0,0.015,1681843509.20
1448,154.0,-355.0,199.0,-681.0,-708.0,-37.0,0.0,0.0,0.0,0.015,1681843509.28
1449,265.0,-352.0,216.0,-302.0,27.0,282.0,0.0,0.0,0.0,0.015,1681843509.36
1450,124.0,-315.0,118.0,-1589.0,-442.0,649.0,0.0,0.0,0.0,0.015,1681843509.44
1451,-33.0,-212.0,-86.0,406.0,-287.0,-1393.0,0.0,0.0,0.0,0.015,1681843509.52
1452,246.0,-377.0,207.0,60.0,1041.0,265.0,0.0,0.0,0.0,0.015,1681843509.60
1453,204.0,-386.0,218.0,-115.0,285.0,77.0,0.0,0.0,0.0,0.015,1681843509.68
1454,240.0,-406.0,174.0,18.0,-98.0,-245.0,0.0,0.0,0.0,0.015,1681843509.76
1455,237.0,-393.0,189.0,-71.0,54.0,3.0,0.0,0.0,0.0,0.015,1681843509.84
1456,191.0,-392.0,182.0,416.0,201.0,157.0,0.0,0.0,0.0,0.015,1681843509.92
1457,213.0,-395.0,162.0,332.0,68.0,44.0,0.0,0.0,0.0,0.015,1681843510.00
1458,173.0,-388.0,197.0,364.0,212.0,34.0,0.0,0.0,0.0,0.015,1681843510.08
1459,162.0,-385.0,238.0,442.0,313.0,175.0,0.0,0.0,0.0,0.015,1681843510.16
1460,152.0,-354.0,221.0,563.0,175.0,190.0,0.0,0.0,0.0,0.015,1681843510.24
1461,149.0,-350.0,245.0,629.0,375.0,491.0,0.0,0.0,0.0,0.015,1681843510.32
1462,102.0,-354.0,312.0,643.0,295.0,388.0,0.0,0.0,0.0,0.015,1681843510.40
1463,,,,,,,,,,,
1464,1500.0,1500.0,1500.0,885.0,1500.0,1500.0,1500.0,1500.0,1500.0,0.014,1681843510.53
1465,54.0,-314.0,284.0,352.0,289.0,499.0,0.0,0.0,0.0,0.015,1681843510.60
1466,54.0,-287.0,326.0,556.0,169.0,366.0,0.0,0.0,0.0,0.014,1681843510.68
1467,34.0,-282.0,319.0,696.0,131.0,420.0,0.0,0.0,0.0,0.015,1681843510.76
1468,9.0,-267.0,335.0,982.0,715.0,654.0,0.0,0.0,0.0,0.015,1681843510.84
1469,-43.0,-240.0,430.0,1010.0,-141.0,429.0,0.0,0.0,0.0,0.015,1681843510.93
1470,-97.0,-207.0,433.0,725.0,241.0,538.0,0.0,0.0,0.0,0.015,1681843511.00
1471,-59.0,-205.0,395.0,1033.0,532.0,867.0,0.0,0.0,0.0,0.015,1681843511.08
1472,-81.0,-146.0,449.0,1241.0,-453.0,990.0,0.0,0.0,0.0,0.015,1681843511.16
1473,-111.0,-74.0,514.0,979.0,8.0,390.0,0.0,0.0,0.0,0.015,1681843511.24
1474,-76.0,-44.0,469.0,990.0,56.0,504.0,0.0,0.0,0.0,0.015,1681843511.32
1475,-84.0,-10.0,484.0,622.0,172.0,303.0,0.0,0.0,0.0,0.015,1681843511.41
1476,-86.0,33.0,428.0,975.0,664.0,385.0,0.0,0.0,0.0,0.015,1681843511.48
1477,-75.0,49.0,457.0,908.0,-256.0,539.0,0.0,0.0,0.0,0.015,1681843511.56
1478,-72.0,100.0,435.0,857.0,-764.0,586.0,0.0,0.0,0.0,0.015,1681843511.64
1479,-94.0,181.0,496.0,613.0,-217.0,156.0,0.0,0.0,0.0,0.015,1681843511.72
1480,-55.0,196.0,462.0,589.0,-207.0,-192.0,0.0,0.0,0.0,0.015,1681843511.80
1481,-23.0,232.0,529.0,511.0,-122.0,-154.0,0.0,0.0,0.0,0.015,1681843511.88
1482,,,,,,,,,,,
1483,,,,,,,,,,,
1484,,,,,,,,,,,
1485,,,,,,,,,,,
1486,1500.0,1500.0,1500.0,885.0,1500.0,1500.0,1500.0,1500.0,1500.0,0.015,1681843512.06
1487,,,,,,,,,,,
1488,40.0,271.0,484.0,-939.0,-299.0,-371.0,0.0,0.0,0.0,0.015,1681843512.22
1489,,,,,,,,,,,
1490,18.0,224.0,468.0,-775.0,-101.0,-48.0,0.0,0.0,0.0,0.015,1681843512.38
1491,148.0,148.0,497.0,-951.0,-2272.0,217.0,0.0,0.0,0.0,0.015,1681843512.46
1492,256.0,174.0,493.0,677.0,-3470.0,95.0,0.0,0.0,0.0,0.015,1681843512.54
1493,238.0,219.0,451.0,101.0,-4341.0,28.0,0.0,0.0,0.0,0.015,1681843512.62
1494,614.0,366.0,325.0,-223.0,-113.0,693.0,0.0,0.0,0.0,0.015,1681843512.70
1495,451.0,226.0,119.0,334.0,3856.0,-514.0,0.0,0.0,0.0,0.015,1681843512.78
1496,200.0,275.0,512.0,-2572.0,7534.0,-2684.0,0.0,0.0,0.0,0.015,1681843512.86
1497,132.0,168.0,296.0,-796.0,-1080.0,446.0,0.0,0.0,0.0,0.015,1681843512.94
1498,68.0,147.0,452.0,307.0,2090.0,-412.0,0.0,0.0,0.0,0.015,1681843513.02
1499,131.0,162.0,458.0,-1653.0,-788.0,-162.0,0.0,0.0,0.0,0.015,1681843513.10
1500,69.0,113.0,503.0,-546.0,-846.0,-35.0,0.0,0.0,0.0,0.015,1681843513.18
1501,,,,,,,,,,,
1502,,,,,,,,,,,
1503,1500.0,1500.0,1500.0,885.0,1500.0,1500.0,1500.0,1500.0,1500.0,0.015,1681843513.31
1504,,,,,,,,,,,
1505,100.0,81.0,486.0,232.0,160.0,-427.0,0.0,0.0,0.0,0.015,1681843513.47
1506,114.0,114.0,466.0,238.0,-169.0,-239.0,0.0,0.0,0.0,0.015,1681843513.55
1507,166.0,136.0,562.0,282.0,615.0,-69.0,0.0,0.0,0.0,0.015,1681843513.63
1508,27.0,-97.0,234.0,-498.0,1371.0,898.0,0.0,0.0,0.0,0.015,1681843513.71
1509,-47.0,45.0,547.0,236.0,1006.0,7.0,0.0,0.0,0.0,0.015,1681843513.79
1510,28.0,66.0,502.0,150.0,294.0,284.0,0.0,0.0,0.0,0.015,1681843513.87
1511,-62.0,138.0,495.0,-72.0,481.0,70.0,0.0,0.0,0.0,0.015,1681843513.95
1512,-65.0,112.0,506.0,-18.0,539.0,-21.0,0.0,0.0,0.0,0.015,1681843514.03
1513,-87.0,99.0,507.0,-205.0,624.0,136.0,0.0,0.0,0.0,0.015,1681843514.11
1514,-105.0,36.0,536.0,106.0,711.0,396.0,0.0,0.0,0.0,0.015,1681843514.19
1515,-138.0,39.0,526.0,-606.0,147.0,70.0,0.0,0.0,0.0,0.015,1681843514.27
1516,-163.0,51.0,517.0,-476.0,555.0,-4.0,0.0,0.0,0.0,0.015,1681843514.35
1517,-198.0,68.0,510.0,-180.0,865.0,-533.0,0.0,0.0,0.0,0.015,1681843514.43
1518,-118.0,119.0,496.0,2735.0,-967.0,-651.0,0.0,0.0,0.0,0.015,1681843514.51
1519,-178.0,99.0,387.0,150.0,-346.0,-457.0,0.0,0.0,0.0,0.015,1681843514.59
1520,,,,,,,,,,,
1521,,,,,,,,,,,
1522,,,,,,,,,,,
1523,-163.0,14.0,380.0,-437.0,-372.0,-599.0,0.0,0.0,0.0,0.015,1681843514.85
1524,-122.0,-25.0,412.0,-651.0,-264.0,-291.0,0.0,0.0,0.0,0.015,1681843514.93
1525,-121.0,-76.0,463.0,-407.0,-321.0,-509.0,0.0,0.0,0.0,0.015,1681843515.01
1526,-128.0,-112.0,478.0,-196.0,-593.0,-544.0,0.0,0.0,0.0,0.015,1681843515.09
1527,-94.0,-169.0,502.0,-235.0,-39.0,-1101.0,0.0,0.0,0.0,0.015,1681843515.17
1528,-102.0,-117.0,483.0,-499.0,-177.0,-356.0,0.0,0.0,0.0,0.015,1681843515.25
1529,-93.0,-136.0,474.0,-694.0,-297.0,-489.0,0.0,0.0,0.0,0.015,1681843515.33
1530,-69.0,-157.0,460.0,-324.0,-334.0,-419.0,0.0,0.0,0.0,0.015,1681843515.41
1531,-6.0,-181.0,468.0,-567.0,-344.0,-376.0,0.0,0.0,0.0,0.015,1681843515.49
1532,-25.0,-200.0,428.0,-336.0,-814.0,-514.0,0.0,0.0,0.0,0.015,1681843515.57
1533,21.0,-205.0,454.0,-108.0,-586.0,-150.0,0.0,0.0,0.0,0.015,1681843515.65
1534,85.0,-199.0,419.0,-435.0,-220.0,-193.0,0.0,0.0,0.0,0.015,1681843515.73
1535,136.0,-284.0,428.0,-2734.0,-8.0,-607.0,0.0,0.0,0.0,0.015,1681843515.81
1536,58.0,-261.0,372.0,-191.0,-537.0,-602.0,0.0,0.0,0.0,0.015,1681843515.89
1537,236.0,-262.0,436.0,-567.0,-380.0,648.0,0.0,0.0,0.0,0.015,1681843515.97
1538,138.0,-277.0,388.0,-367.0,-185.0,208.0,0.0,0.0,0.0,0.015,1681843516.05
1539,,,,,,,,,,,
1540,,,,,,,,,,,
1541,220.0,-305.0,340.0,-977.0,-85.0,-624.0,0.0,0.0,0.0,0.015,1681843516.25
1542,267.0,-310.0,265.0,-1236.0,64.0,-67.0,0.0,0.0,0.0,0.015,1681843516.33
1543,184.0,-331.0,184.0,-674.0,19.0,-20.0,0.0,0.0,0.0,0.015,1681843516.41
1544,230.0,-360.0,202.0,-390.0,47.0,328.0,0.0,0.0,0.0,0.015,1681843516.49
1545,211.0,-415.0,226.0,-438.0,342.0,738.0,0.0,0.0,0.0,0.015,1681843516.57
1546,115.0,-412.0,200.0,-431.0,23.0,567.0,0.0,0.0,0.0,0.015,1681843516.65
1547,53.0,-433.0,195.0,-285.0,-10.0,271.0,0.0,0.0,0.0,0.015,1681843516.73
1548,76.0,-418.0,158.0,-252.0,-90.0,37.0,0.0,0.0,0.0,0.015,1681843516.81
1549,121.0,-443.0,165.0,-487.0,-6.0,93.0,0.0,0.0,0.0,0.015,1681843516.89
1550,103.0,-448.0,135.0,-280.0,148.0,-218.0,0.0,0.0,0.0,0.015,1681843516.97
1551,107.0,-455.0,143.0,-292.0,39.0,377.0,0.0,0.0,0.0,0.015,1681843517.05
1552,73.0,-466.0,125.0,174.0,-81.0,-241.0,0.0,0.0,0.0,0.015,1681843517.13
1553,97.0,-452.0,127.0,-59.0,-3.0,27.0,0.0,0.0,0.0,0.015,1681843517.21
1554,83.0,-457.0,121.0,116.0,-15.0,66.0,0.0,0.0,0.0,0.015,1681843517.29
1555,83.0,-470.0,146.0,153.0,29.0,24.0,0.0,0.0,0.0,0.015,1681843517.37
1556,81.0,-484.0,166.0,134.0,5.0,-35.0,0.0,0.0,0.0,0.015,1681843517.45
1557,88.0,-463.0,149.0,1.0,70.0,-1.0,0.0,0.0,0.0,0.015,1681843517.53
1558,88.0,-444.0,131.0,139.0,-70.0,-53.0,0.0,0.0,0.0,0.015,1681843517.61
1559,1500.0,1500.0,1500.0,885.0,1500.0,1500.0,1500.0,1500.0,1500.0,0.015,1681843517.68
1560,58.0,-463.0,172.0,209.0,-231.0,-127.0,0.0,0.0,0.0,0.015,1681843517.76
1561,109.0,-446.0,164.0,1134.0,-284.0,-318.0,0.0,0.0,0.0,0.015,1681843517.84
1562,89.0,-433.0,197.0,264.0,-66.0,-125.0,0.0,0.0,0.0,0.015,1681843517.92
1563,99.0,-420.0,175.0,98.0,-10.0,-28.0,0.0,0.0,0.0,0.015,1681843518.00
1564,112.0,-428.0,211.0,515.0,51.0,-14.0,0.0,0.0,0.0,0.015,1681843518.08
1565,86.0,-384.0,198.0,1771.0,383.0,-177.0,0.0,0.0,0.0,0.015,1681843518.16
1566,150.0,-358.0,261.0,588.0,-14.0,-14.0,0.0,0.0,0.0,0.015,1681843518.24
1567,126.0,-342.0,315.0,619.0,218.0,-83.0,0.0,0.0,0.0,0.015,1681843518.32
1568,126.0,-322.0,338.0,427.0,164.0,17.0,0.0,0.0,0.0,0.015,1681843518.40
1569,75.0,-314.0,321.0,694.0,503.0,-14.0,0.0,0.0,0.0,0.015,1681843518.48
1570,97.0,-284.0,365.0,671.0,344.0,-24.0,0.0,0.0,0.0,0.015,1681843518.56
1571,88.0,-267.0,408.0,301.0,336.0,203.0,0.0,0.0,0.0,0.015,1681843518.64
1572,47.0,-236.0,386.0,601.0,364.0,137.0,0.0,0.0,0.0,0.015,1681843518.72
1573,90.0,-221.0,434.0,515.0,608.0,426.0,0.0,0.0,0.0,0.015,1681843518.80
1574,6.0,-181.0,360.0,704.0,1555.0,368.0,0.0,0.0,0.0,0.015,1681843518.88
1575,-35.0,-141.0,415.0,590.0,1890.0,201.0,0.0,0.0,0.0,0.015,1681843518.96
1576,-105.0,-149.0,441.0,611.0,139.0,99.0,0.0,0.0,0.0,0.015,1681843519.04
1577,-231.0,-154.0,456.0,478.0,407.0,-29.0,0.0,0.0,0.0,0.015,1681843519.12
1578,,,,,,,,,,,
1579,,,,,,,,,,,
1580,-118.0,-110.0,499.0,1073.0,-264.0,1307.0,0.0,0.0,0.0,0.015,1681843519.29
1581,-191.0,-37.0,556.0,887.0,-383.0,922.0,0.0,0.0,0.0,0.015,1681843519.37
1582,-116.0,-31.0,567.0,444.0,-320.0,752.0,0.0,0.0,0.0,0.015,1681843519.45
1583,-123.0,1.0,527.0,150.0,-519.0,436.0,0.0,0.0,0.0,0.015,1681843519.53
1584,-121.0,49.0,561.0,110.0,-343.0,284.0,0.0,0.0,0.0,0.015,1681843519.61
1585,-102.0,42.0,482.0,-282.0,210.0,71.0,0.0,0.0,0.0,0.015,1681843519.69
1586,-70.0,36.0,471.0,54.0,-176.0,105.0,0.0,0.0,0.0,0.015,1681843519.77
1587,-81.0,27.0,472.0,57.0,-58.0,52.0,0.0,0.0,0.0,0.015,1681843519.85
1588,-94.0,35.0,440.0,238.0,-260.0,37.0,0.0,0.0,0.0,0.015,1681843519.93
1589,-55.0,33.0,479.0,246.0,-34.0,252.0,0.0,0.0,0.0,0.015,1681843520.01
1590,-92.0,75.0,431.0,7.0,-59.0,74.0,0.0,0.0,0.0,0.015,1681843520.09
1591,-21.0,47.0,401.0,153.0,-1095.0,-219.0,0.0,0.0,0.0,0.015,1681843520.17
1592,108.0,81.0,431.0,-112.0,-1930.0,-198.0,0.0,0.0,0.0,0.015,1681843520.25
1593,-55.0,122.0,535.0,857.0,-596.0,374.0,0.0,0.0,0.0,0.015,1681843520.33
1594,126.0,14.0,599.0,-67.0,-29.0,-230.0,0.0,0.0,0.0,0.015,1681843520.41
1595,109.0,23.0,580.0,334.0,-157.0,-203.0,0.0,0.0,0.0,0.015,1681843520.49
1596,98.0,30.0,553.0,-111.0,20.0,-88.0,0.0,0.0,0.0,0.015,1681843520.57
1597,,,,,,,,,,,
1598,103.0,38.0,498.0,-231.0,60.0,-44.0,0.0,0.0,0.0,0.015,1681843520.70
1599,94.0,39.0,486.0,-172.0,-7.0,-6.0,0.0,0.0,0.0,0.015,1681843520.78
1600,100.0,40.0,475.0,-36.0,-143.0,-71.0,0.0,0.0,0.0,0.015,1681843520.86
1601,119.0,34.0,483.0,-23.0,-220.0,29.0,0.0,0.0,0.0,0.015,1681843520.94
1602,130.0,27.0,456.0,161.0,-432.0,199.0,0.0,0.0,0.0,0.015,1681843521.02
1603,116.0,32.0,473.0,-120.0,89.0,-13.0,0.0,0.0,0.0,0.015,1681843521.10
1604,106.0,23.0,470.0,223.0,-145.0,86.0,0.0,0.0,0.0,0.015,1681843521.18
1605,114.0,8.0,517.0,-150.0,189.0,42.0,0.0,0.0,0.0,0.015,1681843521.26
1606,102.0,43.0,498.0,55.0,215.0,-48.0,0.0,0.0,0.0,0.015,1681843521.34
1607,58.0,47.0,483.0,-77.0,86.0,-271.0,0.0,0.0,0.0,0.015,1681843521.42
1608,32.0,34.0,476.0,-23.0,155.0,-276.0,0.0,0.0,0.0,0.015,1681843521.50
1609,67.0,10.0,503.0,6.0,-58.0,-296.0,0.0,0.0,0.0,0.015,1681843521.58
1610,19.0,30.0,479.0,118.0,131.0,-384.0,0.0,0.0,0.0,0.015,1681843521.66
1611,37.0,69.0,444.0,1036.0,-244.0,-558.0,0.0,0.0,0.0,0.015,1681843521.74
1612,79.0,115.0,465.0,366.0,-86.0,-490.0,0.0,0.0,0.0,0.015,1681843521.82
1613,80.0,127.0,465.0,293.0,-103.0,-496.0,0.0,0.0,0.0,0.015,1681843521.90
1614,68.0,139.0,464.0,147.0,-153.0,-498.0,0.0,0.0,0.0,0.015,1681843521.98
1615,88.0,140.0,449.0,157.0,-19.0,-418.0,0.0,0.0,0.0,0.015,1681843522.06
1616,,,,,,,,,,,
1617,,,,,,,,,,,
1618,,,,,,,,,,,
1619,84.0,161.0,466.0,97.0,-135.0,-366.0,0.0,0.0,0.0,0.0,1681843522.15
1620,,,,,,,,,,,
1621,107.0,188.0,438.0,-39.0,-278.0,-307.0,0.0,0.0,0.0,0.015,1681843522.30
1622,,,,,,,,,,,
1623,,,,,,,,,,,
1624,1500.0,1500.0,1500.0,885.0,1500.0,1500.0,1500.0,1500.0,1500.0,0.015,1681843522.54
1625,64.0,179.0,530.0,-75.0,-900.0,-269.0,0.0,0.0,0.0,0.015,1681843522.62
1626,157.0,199.0,400.0,-359.0,229.0,-239.0,0.0,0.0,0.0,0.015,1681843522.70
1627,145.0,181.0,424.0,-266.0,258.0,-168.0,0.0,0.0,0.0,0.015,1681843522.78
1628,116.0,170.0,460.0,-151.0,356.0,-29.0,0.0,0.0,0.0,0.015,1681843522.86
1629,129.0,171.0,446.0,158.0,-599.0,-46.0,0.0,0.0,0.0,0.015,1681843522.94
1630,142.0,184.0,459.0,-160.0,344.0,-94.0,0.0,0.0,0.0,0.015,1681843523.02
1631,100.0,170.0,440.0,-62.0,14.0,-84.0,0.0,0.0,0.0,0.015,1681843523.10
1632,118.0,157.0,454.0,-9.0,546.0,-68.0,0.0,0.0,0.0,0.015,1681843523.18
1633,85.0,152.0,471.0,-56.0,75.0,-22.0,0.0,0.0,0.0,0.015,1681843523.26
1634,106.0,165.0,461.0,-39.0,90.0,70.0,0.0,0.0,0.0,0.015,1681843523.34
1635,,,,,,,,,,,
1636,,,,,,,,,,,
1637,,,,,,,,,,,
1638,121.0,167.0,483.0,-18.0,198.0,211.0,0.0,0.0,0.0,0.015,1681843523.53
1639,,,,,,,,,,,
1640,113.0,149.0,462.0,42.0,192.0,305.0,0.0,0.0,0.0,0.015,1681843523.69
1641,108.0,150.0,503.0,45.0,186.0,440.0,0.0,0.0,0.0,0.015,1681843523.77
1642,92.0,149.0,480.0,-6.0,205.0,428.0,0.0,0.0,0.0,0.015,1681843523.85
1643,116.0,151.0,498.0,-166.0,260.0,606.0,0.0,0.0,0.0,0.015,1681843523.93
1644,55.0,138.0,450.0,98.0,-14.0,624.0,0.0,0.0,0.0,0.015,1681843524.01
1645,46.0,134.0,441.0,114.0,17.0,638.0,0.0,0.0,0.0,0.015,1681843524.09
1646,-18.0,131.0,501.0,193.0,480.0,463.0,0.0,0.0,0.0,0.015,1681843524.17
1647,33.0,115.0,486.0,115.0,361.0,568.0,0.0,0.0,0.0,0.015,1681843524.25
1648,54.0,121.0,499.0,-63.0,147.0,605.0,0.0,0.0,0.0,0.015,1681843524.33
1649,42.0,131.0,459.0,-2.0,131.0,558.0,0.0,0.0,0.0,0.015,1681843524.41
1650,42.0,122.0,485.0,34.0,194.0,641.0,0.0,0.0,0.0,0.015,1681843524.49
1651,41.0,116.0,500.0,27.0,241.0,642.0,0.0,0.0,0.0,0.015,1681843524.57
1652,31.0,113.0,486.0,-11.0,268.0,550.0,0.0,0.0,0.0,0.015,1681843524.65
1653,30.0,106.0,475.0,-6.0,123.0,447.0,0.0,0.0,0.0,0.015,1681843524.73
1654,,,,,,,,,,,
1655,79.0,72.0,537.0,19.0,58.0,404.0,0.0,0.0,0.0,0.015,1681843524.88
1656,24.0,98.0,488.0,-186.0,51.0,492.0,0.0,0.0,0.0,0.015,1681843524.96
1657,14.0,85.0,500.0,-683.0,-122.0,298.0,0.0,0.0,0.0,0.015,1681843525.04
1658,57.0,87.0,467.0,330.0,-719.0,211.0,0.0,0.0,0.0,0.015,1681843525.12
1659,58.0,94.0,466.0,213.0,-152.0,473.0,0.0,0.0,0.0,0.015,1681843525.20
1660,95.0,80.0,510.0,173.0,-260.0,269.0,0.0,0.0,0.0,0.015,1681843525.28
1661,102.0,94.0,491.0,-2.0,-190.0,224.0,0.0,0.0,0.0,0.015,1681843525.36
1662,108.0,90.0,487.0,69.0,-57.0,344.0,0.0,0.0,0.0,0.015,1681843525.44
1663,115.0,76.0,522.0,-566.0,180.0,242.0,0.0,0.0,0.0,0.015,1681843525.52
1664,107.0,49.0,480.0,-216.0,-15.0,173.0,0.0,0.0,0.0,0.015,1681843525.60
1665,75.0,50.0,482.0,-293.0,75.0,243.0,0.0,0.0,0.0,0.015,1681843525.68
1666,111.0,44.0,475.0,-274.0,-180.0,298.0,0.0,0.0,0.0,0.015,1681843525.76
1667,93.0,25.0,486.0,-102.0,-139.0,157.0,0.0,0.0,0.0,0.015,1681843525.84
1668,138.0,40.0,510.0,-333.0,-51.0,523.0,0.0,0.0,0.0,0.015,1681843525.92
1669,120.0,22.0,472.0,-116.0,-221.0,76.0,0.0,0.0,0.0,0.015,1681843526.00
1670,172.0,5.0,498.0,-190.0,-136.0,289.0,0.0,0.0,0.0,0.015,1681843526.08
1671,113.0,18.0,462.0,-121.0,107.0,162.0,0.0,0.0,0.0,0.015,1681843526.16
1672,93.0,16.0,448.0,59.0,-220.0,471.0,0.0,0.0,0.0,0.015,1681843526.24
1673,,,,,,,,,,,
1674,117.0,-13.0,493.0,22.0,280.0,291.0,0.0,0.0,0.0,0.015,1681843526.38
1675,141.0,-20.0,488.0,92.0,251.0,427.0,0.0,0.0,0.0,0.015,1681843526.46
1676,79.0,-7.0,487.0,153.0,180.0,231.0,0.0,0.0,0.0,0.015,1681843526.54
1677,84.0,-20.0,525.0,-37.0,102.0,267.0,0.0,0.0,0.0,0.015,1681843526.62
1678,79.0,-3.0,470.0,45.0,114.0,54.0,0.0,0.0,0.0,0.015,1681843526.70
1679,58.0,-2.0,487.0,249.0,-109.0,42.0,0.0,0.0,0.0,0.015,1681843526.78
1680,56.0,-9.0,531.0,-57.0,184.0,-59.0,0.0,0.0,0.0,0.015,1681843526.86
1681,91.0,8.0,510.0,-12.0,-78.0,-195.0,0.0,0.0,0.0,0.015,1681843526.94
1682,91.0,16.0,529.0,-158.0,-30.0,-265.0,0.0,0.0,0.0,0.015,1681843527.02
1683,65.0,-1.0,526.0,-65.0,41.0,-195.0,0.0,0.0,0.0,0.015,1681843527.10
1684,124.0,-5.0,427.0,-291.0,-19.0,-194.0,0.0,0.0,0.0,0.015,1681843527.18
1685,96.0,-26.0,443.0,168.0,-103.0,-54.0,0.0,0.0,0.0,0.015,1681843527.26
1686,61.0,-11.0,470.0,69.0,-168.0,-271.0,0.0,0.0,0.0,0.015,1681843527.34
1687,103.0,-2.0,487.0,59.0,66.0,-231.0,0.0,0.0,0.0,0.015,1681843527.42
1688,84.0,11.0,484.0,151.0,134.0,-268.0,0.0,0.0,0.0,0.015,1681843527.50
1689,64.0,12.0,482.0,221.0,-62.0,-381.0,0.0,0.0,0.0,0.015,1681843527.58
1690,56.0,19.0,512.0,171.0,181.0,-298.0,0.0,0.0,0.0,0.015,1681843527.66
1691,101.0,6.0,500.0,-61.0,6.0,-453.0,0.0,0.0,0.0,0.015,1681843527.74
1692,95.0,32.0,484.0,25.0,9.0,-447.0,0.0,0.0,0.0,0.015,1681843527.82
1693,,,,,,,,,,,
1694,73.0,50.0,475.0,-293.0,173.0,-490.0,0.0,0.0,0.0,0.015,1681843527.95
1695,88.0,31.0,481.0,-153.0,226.0,-482.0,0.0,0.0,0.0,0.015,1681843528.03
1696,87.0,29.0,482.0,-68.0,193.0,-493.0,0.0,0.0,0.0,0.015,1681843528.11
1697,107.0,21.0,467.0,-79.0,134.0,-448.0,0.0,0.0,0.0,0.015,1681843528.19
1698,80.0,33.0,494.0,61.0,121.0,-351.0,0.0,0.0,0.0,0.015,1681843528.27
1699,68.0,44.0,487.0,130.0,25.0,-445.0,0.0,0.0,0.0,0.015,1681843528.35
1700,84.0,44.0,497.0,109.0,80.0,-395.0,0.0,0.0,0.0,0.015,1681843528.43
1701,86.0,45.0,517.0,-43.0,72.0,-425.0,0.0,0.0,0.0,0.015,1681843528.51
1702,74.0,36.0,499.0,-81.0,67.0,-376.0,0.0,0.0,0.0,0.015,1681843528.59
1703,62.0,42.0,483.0,40.0,-58.0,-296.0,0.0,0.0,0.0,0.015,1681843528.67
1704,57.0,38.0,497.0,30.0,-42.0,-288.0,0.0,0.0,0.0,0.015,1681843528.75
1705,61.0,60.0,492.0,-26.0,-19.0,-320.0,0.0,0.0,0.0,0.015,1681843528.83
1706,77.0,61.0,467.0,52.0,-77.0,-321.0,0.0,0.0,0.0,0.015,1681843528.91
1707,65.0,83.0,442.0,181.0,-218.0,-295.0,0.0,0.0,0.0,0.015,1681843528.99
1708,66.0,80.0,473.0,221.0,-26.0,-236.0,0.0,0.0,0.0,0.015,1681843529.07
1709,68.0,81.0,499.0,70.0,81.0,-313.0,0.0,0.0,0.0,0.015,1681843529.15
1710,101.0,88.0,486.0,119.0,1.0,-280.0,0.0,0.0,0.0,0.015,1681843529.23
1711,106.0,84.0,491.0,211.0,-60.0,-184.0,0.0,0.0,0.0,0.015,1681843529.31
1712,104.0,87.0,501.0,18.0,-10.0,-160.0,0.0,0.0,0.0,0.015,1681843529.37
1713,88.0,83.0,510.0,83.0,-24.0,-109.0,0.0,0.0,0.0,0.015,1681843529.45
1714,80.0,90.0,506.0,-54.0,-7.0,-95.0,0.0,0.0,0.0,0.015,1681843529.53
1715,70.0,96.0,488.0,-83.0,269.0,-143.0,0.0,0.0,0.0,0.015,1681843529.61
1716,65.0,101.0,472.0,-64.0,-27.0,-109.0,0.0,0.0,0.0,0.016,1681843529.69
1717,72.0,91.0,474.0,-1.0,-18.0,-49.0,0.0,0.0,0.0,0.016,1681843529.77
1718,77.0,92.0,478.0,-46.0,53.0,-63.0,0.0,0.0,0.0,0.016,1681843529.85
1719,78.0,83.0,475.0,7.0,45.0,-17.0,0.0,0.0,0.0,0.016,1681843529.93
1720,65.0,84.0,485.0,22.0,28.0,16.0,0.0,0.0,0.0,0.015,1681843530.01
1721,67.0,77.0,504.0,-36.0,22.0,-13.0,0.0,0.0,0.0,0.016,1681843530.09
1722,73.0,80.0,499.0,-28.0,66.0,-14.0,0.0,0.0,0.0,0.016,1681843530.17
1723,70.0,76.0,494.0,-37.0,1.0,-41.0,0.0,0.0,0.0,0.015,1681843530.25
1724,67.0,82.0,477.0,-184.0,1.0,-79.0,0.0,0.0,0.0,0.015,1681843530.33
1725,63.0,67.0,499.0,-462.0,80.0,-86.0,0.0,0.0,0.0,0.016,1681843530.41
1726,48.0,19.0,503.0,-948.0,577.0,-184.0,0.0,0.0,0.0,0.016,1681843530.49
1727,39.0,15.0,474.0,-144.0,495.0,-485.0,0.0,0.0,0.0,0.016,1681843530.57
1728,15.0,7.0,471.0,-380.0,-235.0,-236.0,0.0,0.0,0.0,0.016,1681843530.65
1729,26.0,-12.0,482.0,-217.0,-114.0,-94.0,0.0,0.0,0.0,0.016,1681843530.73
1730,24.0,-15.0,483.0,-54.0,-6.0,-36.0,0.0,0.0,0.0,0.016,1681843530.81
1731,,,,,,,,,,,
1732,,,,,,,,,,,
1733,1500.0,1500.0,1500.0,885.0,1500.0,1500.0,1500.0,1500.0,1500.0,0.015,1681843530.99
1734,8.0,-14.0,510.0,-138.0,-22.0,-50.0,0.0,0.0,0.0,0.015,1681843531.07
1735,22.0,-17.0,498.0,-59.0,49.0,0.0,0.0,0.0,0.0,0.016,1681843531.15
1736,37.0,-16.0,494.0,48.0,30.0,11.0,0.0,0.0,0.0,0.015,1681843531.23
1737,19.0,-9.0,492.0,67.0,26.0,6.0,0.0,0.0,0.0,0.016,1681843531.31
1738,1.0,-8.0,493.0,21.0,-18.0,-21.0,0.0,0.0,0.0,0.015,1681843531.39
1739,11.0,-13.0,500.0,-19.0,15.0,-7.0,0.0,0.0,0.0,0.015,1681843531.47
1740,9.0,-11.0,504.0,65.0,34.0,-9.0,0.0,0.0,0.0,0.016,1681843531.55
1741,17.0,-11.0,496.0,-9.0,30.0,-17.0,0.0,0.0,0.0,0.016,1681843531.63
1742,18.0,-9.0,494.0,-19.0,24.0,-15.0,0.0,0.0,0.0,0.015,1681843531.71
1743,15.0,-5.0,492.0,-47.0,1.0,-40.0,0.0,0.0,0.0,0.016,1681843531.79
1744,17.0,-11.0,502.0,48.0,50.0,-17.0,0.0,0.0,0.0,0.015,1681843531.87
1745,15.0,-11.0,496.0,43.0,29.0,-12.0,0.0,0.0,0.0,0.016,1681843531.95
1746,3.0,-3.0,492.0,-2.0,-2.0,-67.0,0.0,0.0,0.0,0.015,1681843532.03
1747,18.0,1.0,492.0,10.0,101.0,38.0,0.0,0.0,0.0,0.016,1681843532.11
1748,27.0,-7.0,494.0,275.0,187.0,27.0,0.0,0.0,0.0,0.016,1681843532.19
1749,13.0,-10.0,525.0,142.0,111.0,-14.0,0.0,0.0,0.0,0.015,1681843532.27
1750,,,,,,,,,,,
1751,,,,,,,,,,,
1752,,,,,,,,,,,
1753,,,,,,,,,,,
1754,,,,,,,,,,,
1755,1500.0,1500.0,1500.0,885.0,1500.0,1500.0,1500.0,1500.0,1500.0,0.015,1681843532.49
1756,,,,,,,,,,,
1757,-3.0,-81.0,550.0,-1396.0,344.0,-96.0,0.0,0.0,0.0,0.015,1681843532.65
1758,,,,,,,,,,,
1759,-13.0,-215.0,437.0,-1213.0,-49.0,-382.0,0.0,0.0,0.0,0.016,1681843532.81
1760,-10.0,-252.0,406.0,-1445.0,-153.0,-413.0,0.0,0.0,0.0,0.015,1681843532.89
1761,11.0,-288.0,298.0,-1047.0,-209.0,-305.0,0.0,0.0,0.0,0.015,1681843532.97
1762,7.0,-313.0,295.0,-884.0,-160.0,-358.0,0.0,0.0,0.0,0.015,1681843533.05
1763,43.0,-354.0,314.0,-958.0,119.0,-130.0,0.0,0.0,0.0,0.016,1681843533.13
1764,43.0,-369.0,277.0,-709.0,60.0,-122.0,0.0,0.0,0.0,0.016,1681843533.21
1765,59.0,-401.0,224.0,-653.0,124.0,-103.0,0.0,0.0,0.0,0.015,1681843533.29
1766,39.0,-420.0,204.0,-568.0,259.0,-99.0,0.0,0.0,0.0,0.016,1681843533.37
1767,18.0,-439.0,197.0,-499.0,361.0,-211.0,0.0,0.0,0.0,0.015,1681843533.45
1768,25.0,-437.0,172.0,-360.0,53.0,-276.0,0.0,0.0,0.0,0.016,1681843533.53
1769,,,,,,,,,,,
1770,,,,,,,,,,,
1771,,,,,,,,,,,
1772,,,,,,,,,,,
1773,,,,,,,,,,,
1774,1500.0,1500.0,1500.0,885.0,1500.0,1500.0,1500.0,1500.0,1500.0,0.014,1681843533.87
1775,64.0,-485.0,198.0,-205.0,264.0,388.0,0.0,0.0,0.0,0.015,1681843533.95
1776,53.0,-465.0,142.0,-242.0,37.0,22.0,0.0,0.0,0.0,0.016,1681843534.03
1777,70.0,-457.0,121.0,-191.0,9.0,-25.0,0.0,0.0,0.0,0.015,1681843534.11
1778,56.0,-450.0,112.0,-72.0,-20.0,-23.0,0.0,0.0,0.0,0.016,1681843534.19
1779,71.0,-469.0,111.0,-38.0,-30.0,-19.0,0.0,0.0,0.0,0.015,1681843534.27
1780,38.0,-478.0,129.0,-56.0,116.0,26.0,0.0,0.0,0.0,0.016,1681843534.35
1781,42.0,-488.0,137.0,-75.0,49.0,63.0,0.0,0.0,0.0,0.016,1681843534.43
1782,39.0,-485.0,120.0,-58.0,23.0,-20.0,0.0,0.0,0.0,0.016,1681843534.51
1783,58.0,-492.0,87.0,-94.0,17.0,-220.0,0.0,0.0,0.0,0.015,1681843534.59
1784,58.0,-483.0,134.0,162.0,218.0,130.0,0.0,0.0,0.0,0.015,1681843534.67
1785,79.0,-468.0,134.0,53.0,-162.0,-104.0,0.0,0.0,0.0,0.016,1681843534.75
1786,63.0,-477.0,160.0,-98.0,98.0,83.0,0.0,0.0,0.0,0.016,1681843534.83
1787,35.0,-483.0,124.0,-182.0,6.0,-40.0,0.0,0.0,0.0,0.016,1681843534.91
1788,,,,,,,,,,,
1789,1500.0,1500.0,1500.0,885.0,1500.0,1500.0,1500.0,1500.0,1500.0,0.015,1681843535.04
1790,97.0,-457.0,90.0,116.0,-74.0,4.0,0.0,0.0,0.0,0.015,1681843535.12
1791,61.0,-458.0,104.0,104.0,139.0,79.0,0.0,0.0,0.0,0.016,1681843535.20
1792,36.0,-463.0,114.0,79.0,29.0,-36.0,0.0,0.0,0.0,0.016,1681843535.28
1793,68.0,-487.0,130.0,27.0,8.0,-28.0,0.0,0.0,0.0,0.016,1681843535.36
1794,60.0,-478.0,103.0,-18.0,-11.0,-9.0,0.0,0.0,0.0,0.015,1681843535.44
1795,56.0,-486.0,133.0,17.0,11.0,0.0,0.0,0.0,0.0,0.016,1681843535.52
1796,44.0,-477.0,120.0,-39.0,86.0,-79.0,0.0,0.0,0.0,0.015,1681843535.60
1797,82.0,-471.0,103.0,9.0,-22.0,-121.0,0.0,0.0,0.0,0.016,1681843535.68
1798,77.0,-479.0,110.0,9.0,86.0,55.0,0.0,0.0,0.0,0.016,1681843535.76
1799,44.0,-475.0,114.0,-41.0,44.0,-4.0,0.0,0.0,0.0,0.015,1681843535.84
1800,66.0,-476.0,107.0,-25.0,-15.0,-63.0,0.0,0.0,0.0,0.016,1681843535.92
1801,67.0,-478.0,101.0,3.0,-36.0,-22.0,0.0,0.0,0.0,0.016,1681843536.00
1802,58.0,-483.0,112.0,-2.0,33.0,3.0,0.0,0.0,0.0,0.016,1681843536.08
1803,55.0,-479.0,116.0,-69.0,113.0,-42.0,0.0,0.0,0.0,0.015,1681843536.16
1804,52.0,-472.0,84.0,-23.0,-57.0,-81.0,0.0,0.0,0.0,0.016,1681843536.24
1805,56.0,-478.0,107.0,36.0,29.0,0.0,0.0,0.0,0.0,0.016,1681843536.32
1806,57.0,-484.0,100.0,-98.0,-16.0,-68.0,0.0,0.0,0.0,0.016,1681843536.40
